trial+AF8-name,trial+AF8-number,response,RT,question,picture,pictureNumber,min+AF8-chars,expected,QUD,optionLeft,optionRight,artist,date,color,color2,option1,option2,startDate,startTime,age,gender,education,languages,comments,endTime,timeSpent,experiment+AF8-id,submission+AF8-id
colourVisionTest1,1,74,2956,Which number do you see here?,vision/ishihara.png,0,0,74,,NA,NA,NA,NA,NA,NA,NA,NA,Thu Jul 11 2019 10:56:21 GMT+023//Q- (Mitteleurop+//0Aw//9AKQ-ische Sommerzeit),1562835381971,21,female,Graduated High School,,hi lila,1562835842171,7.67,INSERT+AF8-A+AF8-NUMBER,1
colourVisionTest2,1,7,2618,Which number do you see here?,vision/ishihara2.jpg,0,0,7,,NA,NA,NA,NA,NA,NA,NA,NA,Thu Jul 11 2019 10:56:21 GMT+023//Q- (Mitteleurop+//0Aw//9AKQ-ische Sommerzeit),1562835381971,21,female,Graduated High School,,hi lila,1562835842171,7.67,INSERT+AF8-A+AF8-NUMBER,1
visionTest,1,FELOPZD,10722,Please make sure you are one arm+AC0-length away from your computer screen. Write the letters from line 7 (below the green line) into the box below. Please use capital letters without tabs or spaces in between the letters.,vision/Snellen+AF8-chart.jpg,0,1,FELOPZD,,NA,NA,NA,NA,NA,NA,NA,NA,Thu Jul 11 2019 10:56:21 GMT+023//Q- (Mitteleurop+//0Aw//9AKQ-ische Sommerzeit),1562835381971,21,female,Graduated High School,,hi lila,1562835842171,7.67,INSERT+AF8-A+AF8-NUMBER,1
ratingScaleLike,1,1,2579,How much do you like this picture?,images/002.jpg,2,NA,NA,,not at all,very,B,1909,colored,sepia,NA,NA,Thu Jul 11 2019 10:56:21 GMT+023//Q- (Mitteleurop+//0Aw//9AKQ-ische Sommerzeit),1562835381971,21,female,Graduated High School,,hi lila,1562835842171,7.67,INSERT+AF8-A+AF8-NUMBER,1
ratingScaleLike,2,1,1340,How much do you like this picture?,images/037.jpg,37,NA,NA,,not at all,very,B,1909,monochrome,monochrome,NA,NA,Thu Jul 11 2019 10:56:21 GMT+023//Q- (Mitteleurop+//0Aw//9AKQ-ische Sommerzeit),1562835381971,21,female,Graduated High School,,hi lila,1562835842171,7.67,INSERT+AF8-A+AF8-NUMBER,1
ratingScaleLike,3,1,891,How much do you like this picture?,images/032.jpg,32,NA,NA,,not at all,very,P,1910,colored,sepia,NA,NA,Thu Jul 11 2019 10:56:21 GMT+023//Q- (Mitteleurop+//0Aw//9AKQ-ische Sommerzeit),1562835381971,21,female,Graduated High School,,hi lila,1562835842171,7.67,INSERT+AF8-A+AF8-NUMBER,1
ratingScaleLike,4,2,1357,How much do you like this picture?,images/115.jpg,115,NA,NA,,not at all,very,P,1910,colored,sepia,NA,NA,Thu Jul 11 2019 10:56:21 GMT+023//Q- (Mitteleurop+//0Aw//9AKQ-ische Sommerzeit),1562835381971,21,female,Graduated High School,,hi lila,1562835842171,7.67,INSERT+AF8-A+AF8-NUMBER,1
ratingScaleLike,5,1,1230,How much do you like this picture?,images/025.jpg,25,NA,NA,,not at all,very,P,1911,colored,colored,NA,NA,Thu Jul 11 2019 10:56:21 GMT+023//Q- (Mitteleurop+//0Aw//9AKQ-ische Sommerzeit),1562835381971,21,female,Graduated High School,,hi lila,1562835842171,7.67,INSERT+AF8-A+AF8-NUMBER,1
ratingScaleLike,6,2,1380,How much do you like this picture?,images/054.jpg,54,NA,NA,,not at all,very,P,1910,monochrome,monochrome,NA,NA,Thu Jul 11 2019 10:56:21 GMT+023//Q- (Mitteleurop+//0Aw//9AKQ-ische Sommerzeit),1562835381971,21,female,Graduated High School,,hi lila,1562835842171,7.67,INSERT+AF8-A+AF8-NUMBER,1
ratingScaleLike,7,1,1491,How much do you like this picture?,images/011.jpg,11,NA,NA,,not at all,very,B,1911,colored,sepia,NA,NA,Thu Jul 11 2019 10:56:21 GMT+023//Q- (Mitteleurop+//0Aw//9AKQ-ische Sommerzeit),1562835381971,21,female,Graduated High School,,hi lila,1562835842171,7.67,INSERT+AF8-A+AF8-NUMBER,1
ratingScaleLike,8,1,828,How much do you like this picture?,images/112.jpg,112,NA,NA,,not at all,very,P,1911,colored,sepia,NA,NA,Thu Jul 11 2019 10:56:21 GMT+023//Q- (Mitteleurop+//0Aw//9AKQ-ische Sommerzeit),1562835381971,21,female,Graduated High School,,hi lila,1562835842171,7.67,INSERT+AF8-A+AF8-NUMBER,1
ratingScaleLike,9,2,1379,How much do you like this picture?,images/057.jpg,57,NA,NA,,not at all,very,P,1911,monochrome,monochrome,NA,NA,Thu Jul 11 2019 10:56:21 GMT+023//Q- (Mitteleurop+//0Aw//9AKQ-ische Sommerzeit),1562835381971,21,female,Graduated High School,,hi lila,1562835842171,7.67,INSERT+AF8-A+AF8-NUMBER,1
ratingScaleLike,10,2,1884,How much do you like this picture?,images/023.jpg,23,NA,NA,,not at all,very,P,1911,colored,colored,NA,NA,Thu Jul 11 2019 10:56:21 GMT+023//Q- (Mitteleurop+//0Aw//9AKQ-ische Sommerzeit),1562835381971,21,female,Graduated High School,,hi lila,1562835842171,7.67,INSERT+AF8-A+AF8-NUMBER,1
ratingScaleLike,11,2,1286,How much do you like this picture?,images/050.jpg,50,NA,NA,,not at all,very,B,1911,monochrome,monochrome,NA,NA,Thu Jul 11 2019 10:56:21 GMT+023//Q- (Mitteleurop+//0Aw//9AKQ-ische Sommerzeit),1562835381971,21,female,Graduated High School,,hi lila,1562835842171,7.67,INSERT+AF8-A+AF8-NUMBER,1
ratingScaleLike,12,4,2318,How much do you like this picture?,images/110.jpg,110,NA,NA,,not at all,very,G,1912,monochrome,monochrome,NA,NA,Thu Jul 11 2019 10:56:21 GMT+023//Q- (Mitteleurop+//0Aw//9AKQ-ische Sommerzeit),1562835381971,21,female,Graduated High School,,hi lila,1562835842171,7.67,INSERT+AF8-A+AF8-NUMBER,1
ratingScaleLike,13,5,1948,How much do you like this picture?,images/082.jpg,82,NA,NA,,not at all,very,G,1913,colored,colored,NA,NA,Thu Jul 11 2019 10:56:21 GMT+023//Q- (Mitteleurop+//0Aw//9AKQ-ische Sommerzeit),1562835381971,21,female,Graduated High School,,hi lila,1562835842171,7.67,INSERT+AF8-A+AF8-NUMBER,1
ratingScaleLike,14,1,1664,How much do you like this picture?,images/022.jpg,22,NA,NA,,not at all,very,P,1910,colored,sepia,NA,NA,Thu Jul 11 2019 10:56:21 GMT+023//Q- (Mitteleurop+//0Aw//9AKQ-ische Sommerzeit),1562835381971,21,female,Graduated High School,,hi lila,1562835842171,7.67,INSERT+AF8-A+AF8-NUMBER,1
ratingScaleLike,15,4,2594,How much do you like this picture?,images/090.jpg,90,NA,NA,,not at all,very,G,1914,colored,colored,NA,NA,Thu Jul 11 2019 10:56:21 GMT+023//Q- (Mitteleurop+//0Aw//9AKQ-ische Sommerzeit),1562835381971,21,female,Graduated High School,,hi lila,1562835842171,7.67,INSERT+AF8-A+AF8-NUMBER,1
ratingScaleLike,16,5,1790,How much do you like this picture?,images/084.jpg,84,NA,NA,,not at all,very,G,1912,colored,colored,NA,NA,Thu Jul 11 2019 10:56:21 GMT+023//Q- (Mitteleurop+//0Aw//9AKQ-ische Sommerzeit),1562835381971,21,female,Graduated High School,,hi lila,1562835842171,7.67,INSERT+AF8-A+AF8-NUMBER,1
ratingScaleLike,17,1,1530,How much do you like this picture?,images/042.jpg,42,NA,NA,,not at all,very,B,1909,monochrome,monochrome,NA,NA,Thu Jul 11 2019 10:56:21 GMT+023//Q- (Mitteleurop+//0Aw//9AKQ-ische Sommerzeit),1562835381971,21,female,Graduated High School,,hi lila,1562835842171,7.67,INSERT+AF8-A+AF8-NUMBER,1
ratingScaleLike,18,1,1079,How much do you like this picture?,images/040.jpg,40,NA,NA,,not at all,very,B,1912,monochrome,monochrome,NA,NA,Thu Jul 11 2019 10:56:21 GMT+023//Q- (Mitteleurop+//0Aw//9AKQ-ische Sommerzeit),1562835381971,21,female,Graduated High School,,hi lila,1562835842171,7.67,INSERT+AF8-A+AF8-NUMBER,1
ratingScaleLike,19,1,867,How much do you like this picture?,images/061.jpg,61,NA,NA,,not at all,very,P,1909,monochrome,monochrome,NA,NA,Thu Jul 11 2019 10:56:21 GMT+023//Q- (Mitteleurop+//0Aw//9AKQ-ische Sommerzeit),1562835381971,21,female,Graduated High School,,hi lila,1562835842171,7.67,INSERT+AF8-A+AF8-NUMBER,1
ratingScaleLike,20,3,2302,How much do you like this picture?,images/109.jpg,109,NA,NA,,not at all,very,G,1913,monochrome,monochrome,NA,NA,Thu Jul 11 2019 10:56:21 GMT+023//Q- (Mitteleurop+//0Aw//9AKQ-ische Sommerzeit),1562835381971,21,female,Graduated High School,,hi lila,1562835842171,7.67,INSERT+AF8-A+AF8-NUMBER,1
ratingScaleLike,21,6,1499,How much do you like this picture?,images/083.jpg,83,NA,NA,,not at all,very,G,1912,colored,colored,NA,NA,Thu Jul 11 2019 10:56:21 GMT+023//Q- (Mitteleurop+//0Aw//9AKQ-ische Sommerzeit),1562835381971,21,female,Graduated High School,,hi lila,1562835842171,7.67,INSERT+AF8-A+AF8-NUMBER,1
ratingScaleLike,22,1,1262,How much do you like this picture?,images/003.jpg,3,NA,NA,,not at all,very,B,1910,colored,sepia,NA,NA,Thu Jul 11 2019 10:56:21 GMT+023//Q- (Mitteleurop+//0Aw//9AKQ-ische Sommerzeit),1562835381971,21,female,Graduated High School,,hi lila,1562835842171,7.67,INSERT+AF8-A+AF8-NUMBER,1
ratingScaleLike,23,3,1388,How much do you like this picture?,images/051.jpg,51,NA,NA,,not at all,very,P,1913,monochrome,monochrome,NA,NA,Thu Jul 11 2019 10:56:21 GMT+023//Q- (Mitteleurop+//0Aw//9AKQ-ische Sommerzeit),1562835381971,21,female,Graduated High School,,hi lila,1562835842171,7.67,INSERT+AF8-A+AF8-NUMBER,1
ratingScaleLike,24,1,961,How much do you like this picture?,images/068.jpg,68,NA,NA,,not at all,very,P,1910,monochrome,monochrome,NA,NA,Thu Jul 11 2019 10:56:21 GMT+023//Q- (Mitteleurop+//0Aw//9AKQ-ische Sommerzeit),1562835381971,21,female,Graduated High School,,hi lila,1562835842171,7.67,INSERT+AF8-A+AF8-NUMBER,1
ratingScaleLike,25,1,1135,How much do you like this picture?,images/043.jpg,43,NA,NA,,not at all,very,B,1909,monochrome,monochrome,NA,NA,Thu Jul 11 2019 10:56:21 GMT+023//Q- (Mitteleurop+//0Aw//9AKQ-ische Sommerzeit),1562835381971,21,female,Graduated High School,,hi lila,1562835842171,7.67,INSERT+AF8-A+AF8-NUMBER,1
ratingScaleLike,26,5,1679,How much do you like this picture?,images/092.jpg,92,NA,NA,,not at all,very,G,1919,monochrome,monochrome,NA,NA,Thu Jul 11 2019 10:56:21 GMT+023//Q- (Mitteleurop+//0Aw//9AKQ-ische Sommerzeit),1562835381971,21,female,Graduated High School,,hi lila,1562835842171,7.67,INSERT+AF8-A+AF8-NUMBER,1
ratingScaleLike,27,1,1262,How much do you like this picture?,images/095.jpg,95,NA,NA,,not at all,very,G,1917,monochrome,monochrome,NA,NA,Thu Jul 11 2019 10:56:21 GMT+023//Q- (Mitteleurop+//0Aw//9AKQ-ische Sommerzeit),1562835381971,21,female,Graduated High School,,hi lila,1562835842171,7.67,INSERT+AF8-A+AF8-NUMBER,1
ratingScaleLike,28,5,2010,How much do you like this picture?,images/079.jpg,79,NA,NA,,not at all,very,G,1914,colored,colored,NA,NA,Thu Jul 11 2019 10:56:21 GMT+023//Q- (Mitteleurop+//0Aw//9AKQ-ische Sommerzeit),1562835381971,21,female,Graduated High School,,hi lila,1562835842171,7.67,INSERT+AF8-A+AF8-NUMBER,1
ratingScaleLike,29,1,1317,How much do you like this picture?,images/071.jpg,71,NA,NA,,not at all,very,P,1911,monochrome,monochrome,NA,NA,Thu Jul 11 2019 10:56:21 GMT+023//Q- (Mitteleurop+//0Aw//9AKQ-ische Sommerzeit),1562835381971,21,female,Graduated High School,,hi lila,1562835842171,7.67,INSERT+AF8-A+AF8-NUMBER,1
ratingScaleLike,30,2,1420,How much do you like this picture?,images/044.jpg,44,NA,NA,,not at all,very,B,1910,monochrome,monochrome,NA,NA,Thu Jul 11 2019 10:56:21 GMT+023//Q- (Mitteleurop+//0Aw//9AKQ-ische Sommerzeit),1562835381971,21,female,Graduated High School,,hi lila,1562835842171,7.67,INSERT+AF8-A+AF8-NUMBER,1
ratingScaleLike,31,6,1853,How much do you like this picture?,images/076.jpg,76,NA,NA,,not at all,very,G,1915,colored,colored,NA,NA,Thu Jul 11 2019 10:56:21 GMT+023//Q- (Mitteleurop+//0Aw//9AKQ-ische Sommerzeit),1562835381971,21,female,Graduated High School,,hi lila,1562835842171,7.67,INSERT+AF8-A+AF8-NUMBER,1
ratingScaleLike,32,6,1450,How much do you like this picture?,images/080.jpg,80,NA,NA,,not at all,very,G,1914,colored,colored,NA,NA,Thu Jul 11 2019 10:56:21 GMT+023//Q- (Mitteleurop+//0Aw//9AKQ-ische Sommerzeit),1562835381971,21,female,Graduated High School,,hi lila,1562835842171,7.67,INSERT+AF8-A+AF8-NUMBER,1
ratingScaleLike,33,7,1041,How much do you like this picture?,images/081.jpg,81,NA,NA,,not at all,very,G,1914,colored,colored,NA,NA,Thu Jul 11 2019 10:56:21 GMT+023//Q- (Mitteleurop+//0Aw//9AKQ-ische Sommerzeit),1562835381971,21,female,Graduated High School,,hi lila,1562835842171,7.67,INSERT+AF8-A+AF8-NUMBER,1
ratingScaleLike,34,7,1655,How much do you like this picture?,images/099.jpg,99,NA,NA,,not at all,very,G,1916,monochrome,monochrome,NA,NA,Thu Jul 11 2019 10:56:21 GMT+023//Q- (Mitteleurop+//0Aw//9AKQ-ische Sommerzeit),1562835381971,21,female,Graduated High School,,hi lila,1562835842171,7.67,INSERT+AF8-A+AF8-NUMBER,1
ratingScaleLike,35,6,1041,How much do you like this picture?,images/097.jpg,97,NA,NA,,not at all,very,G,1917,monochrome,monochrome,NA,NA,Thu Jul 11 2019 10:56:21 GMT+023//Q- (Mitteleurop+//0Aw//9AKQ-ische Sommerzeit),1562835381971,21,female,Graduated High School,,hi lila,1562835842171,7.67,INSERT+AF8-A+AF8-NUMBER,1
ratingScaleLike,36,1,1238,How much do you like this picture?,images/113.jpg,113,NA,NA,,not at all,very,P,1910,colored,sepia,NA,NA,Thu Jul 11 2019 10:56:21 GMT+023//Q- (Mitteleurop+//0Aw//9AKQ-ische Sommerzeit),1562835381971,21,female,Graduated High School,,hi lila,1562835842171,7.67,INSERT+AF8-A+AF8-NUMBER,1
ratingScaleLike,37,2,1395,How much do you like this picture?,images/035.jpg,35,NA,NA,,not at all,very,B,1911,colored,sepia,NA,NA,Thu Jul 11 2019 10:56:21 GMT+023//Q- (Mitteleurop+//0Aw//9AKQ-ische Sommerzeit),1562835381971,21,female,Graduated High School,,hi lila,1562835842171,7.67,INSERT+AF8-A+AF8-NUMBER,1
ratingScaleLike,38,5,1387,How much do you like this picture?,images/102.jpg,102,NA,NA,,not at all,very,G,1915,monochrome,monochrome,NA,NA,Thu Jul 11 2019 10:56:21 GMT+023//Q- (Mitteleurop+//0Aw//9AKQ-ische Sommerzeit),1562835381971,21,female,Graduated High School,,hi lila,1562835842171,7.67,INSERT+AF8-A+AF8-NUMBER,1
ratingScaleLike,39,6,1073,How much do you like this picture?,images/105.jpg,105,NA,NA,,not at all,very,G,1914,monochrome,monochrome,NA,NA,Thu Jul 11 2019 10:56:21 GMT+023//Q- (Mitteleurop+//0Aw//9AKQ-ische Sommerzeit),1562835381971,21,female,Graduated High School,,hi lila,1562835842171,7.67,INSERT+AF8-A+AF8-NUMBER,1
ratingScaleLike,40,6,1774,How much do you like this picture?,images/101.jpg,101,NA,NA,,not at all,very,G,1915,monochrome,monochrome,NA,NA,Thu Jul 11 2019 10:56:21 GMT+023//Q- (Mitteleurop+//0Aw//9AKQ-ische Sommerzeit),1562835381971,21,female,Graduated High School,,hi lila,1562835842171,7.67,INSERT+AF8-A+AF8-NUMBER,1
ratingScaleLike,41,1,1261,How much do you like this picture?,images/017.jpg,17,NA,NA,,not at all,very,P,1911,colored,sepia,NA,NA,Thu Jul 11 2019 10:56:21 GMT+023//Q- (Mitteleurop+//0Aw//9AKQ-ische Sommerzeit),1562835381971,21,female,Graduated High School,,hi lila,1562835842171,7.67,INSERT+AF8-A+AF8-NUMBER,1
ratingScaleLike,42,2,859,How much do you like this picture?,images/055.jpg,55,NA,NA,,not at all,very,P,1911,monochrome,monochrome,NA,NA,Thu Jul 11 2019 10:56:21 GMT+023//Q- (Mitteleurop+//0Aw//9AKQ-ische Sommerzeit),1562835381971,21,female,Graduated High School,,hi lila,1562835842171,7.67,INSERT+AF8-A+AF8-NUMBER,1
ratingScaleLike,43,1,835,How much do you like this picture?,images/024.jpg,24,NA,NA,,not at all,very,P,1911,colored,colored,NA,NA,Thu Jul 11 2019 10:56:21 GMT+023//Q- (Mitteleurop+//0Aw//9AKQ-ische Sommerzeit),1562835381971,21,female,Graduated High School,,hi lila,1562835842171,7.67,INSERT+AF8-A+AF8-NUMBER,1
ratingScaleLike,44,1,899,How much do you like this picture?,images/005.jpg,5,NA,NA,,not at all,very,B,1910,colored,colored,NA,NA,Thu Jul 11 2019 10:56:21 GMT+023//Q- (Mitteleurop+//0Aw//9AKQ-ische Sommerzeit),1562835381971,21,female,Graduated High School,,hi lila,1562835842171,7.67,INSERT+AF8-A+AF8-NUMBER,1
ratingScaleLike,45,1,828,How much do you like this picture?,images/045.jpg,45,NA,NA,,not at all,very,B,1911,monochrome,monochrome,NA,NA,Thu Jul 11 2019 10:56:21 GMT+023//Q- (Mitteleurop+//0Aw//9AKQ-ische Sommerzeit),1562835381971,21,female,Graduated High School,,hi lila,1562835842171,7.67,INSERT+AF8-A+AF8-NUMBER,1
ratingScaleLike,46,2,1245,How much do you like this picture?,images/046.jpg,46,NA,NA,,not at all,very,B,1911,monochrome,monochrome,NA,NA,Thu Jul 11 2019 10:56:21 GMT+023//Q- (Mitteleurop+//0Aw//9AKQ-ische Sommerzeit),1562835381971,21,female,Graduated High School,,hi lila,1562835842171,7.67,INSERT+AF8-A+AF8-NUMBER,1
ratingScaleLike,47,5,1371,How much do you like this picture?,images/088.jpg,88,NA,NA,,not at all,very,G,1916,colored,colored,NA,NA,Thu Jul 11 2019 10:56:21 GMT+023//Q- (Mitteleurop+//0Aw//9AKQ-ische Sommerzeit),1562835381971,21,female,Graduated High School,,hi lila,1562835842171,7.67,INSERT+AF8-A+AF8-NUMBER,1
ratingScaleLike,48,1,1128,How much do you like this picture?,images/114.jpg,114,NA,NA,,not at all,very,B,1909,monochrome,monochrome,NA,NA,Thu Jul 11 2019 10:56:21 GMT+023//Q- (Mitteleurop+//0Aw//9AKQ-ische Sommerzeit),1562835381971,21,female,Graduated High School,,hi lila,1562835842171,7.67,INSERT+AF8-A+AF8-NUMBER,1
ratingScaleLike,49,2,1024,How much do you like this picture?,images/031.jpg,31,NA,NA,,not at all,very,P,1909,colored,colored,NA,NA,Thu Jul 11 2019 10:56:21 GMT+023//Q- (Mitteleurop+//0Aw//9AKQ-ische Sommerzeit),1562835381971,21,female,Graduated High School,,hi lila,1562835842171,7.67,INSERT+AF8-A+AF8-NUMBER,1
ratingScaleLike,50,1,1403,How much do you like this picture?,images/056.jpg,56,NA,NA,,not at all,very,P,1911,monochrome,monochrome,NA,NA,Thu Jul 11 2019 10:56:21 GMT+023//Q- (Mitteleurop+//0Aw//9AKQ-ische Sommerzeit),1562835381971,21,female,Graduated High School,,hi lila,1562835842171,7.67,INSERT+AF8-A+AF8-NUMBER,1
ratingScaleLike,51,2,1411,How much do you like this picture?,images/036.jpg,36,NA,NA,,not at all,very,B,1908,monochrome,monochrome,NA,NA,Thu Jul 11 2019 10:56:21 GMT+023//Q- (Mitteleurop+//0Aw//9AKQ-ische Sommerzeit),1562835381971,21,female,Graduated High School,,hi lila,1562835842171,7.67,INSERT+AF8-A+AF8-NUMBER,1
ratingScaleLike,52,4,1388,How much do you like this picture?,images/058.jpg,58,NA,NA,,not at all,very,P,1914,monochrome,monochrome,NA,NA,Thu Jul 11 2019 10:56:21 GMT+023//Q- (Mitteleurop+//0Aw//9AKQ-ische Sommerzeit),1562835381971,21,female,Graduated High School,,hi lila,1562835842171,7.67,INSERT+AF8-A+AF8-NUMBER,1
ratingScaleLike,53,3,1404,How much do you like this picture?,images/066.jpg,66,NA,NA,,not at all,very,B,1910,monochrome,monochrome,NA,NA,Thu Jul 11 2019 10:56:21 GMT+023//Q- (Mitteleurop+//0Aw//9AKQ-ische Sommerzeit),1562835381971,21,female,Graduated High School,,hi lila,1562835842171,7.67,INSERT+AF8-A+AF8-NUMBER,1
ratingScaleLike,54,1,1679,How much do you like this picture?,images/030.jpg,30,NA,NA,,not at all,very,P,1912,colored,sepia,NA,NA,Thu Jul 11 2019 10:56:21 GMT+023//Q- (Mitteleurop+//0Aw//9AKQ-ische Sommerzeit),1562835381971,21,female,Graduated High School,,hi lila,1562835842171,7.67,INSERT+AF8-A+AF8-NUMBER,1
ratingScaleLike,55,2,1104,How much do you like this picture?,images/119.jpg,119,NA,NA,,not at all,very,B,1913,colored,colored,NA,NA,Thu Jul 11 2019 10:56:21 GMT+023//Q- (Mitteleurop+//0Aw//9AKQ-ische Sommerzeit),1562835381971,21,female,Graduated High School,,hi lila,1562835842171,7.67,INSERT+AF8-A+AF8-NUMBER,1
ratingScaleLike,56,6,1798,How much do you like this picture?,images/106.jpg,106,NA,NA,,not at all,very,G,1914,monochrome,monochrome,NA,NA,Thu Jul 11 2019 10:56:21 GMT+023//Q- (Mitteleurop+//0Aw//9AKQ-ische Sommerzeit),1562835381971,21,female,Graduated High School,,hi lila,1562835842171,7.67,INSERT+AF8-A+AF8-NUMBER,1
ratingScaleLike,57,1,1135,How much do you like this picture?,images/103.jpg,103,NA,NA,,not at all,very,G,1916,monochrome,monochrome,NA,NA,Thu Jul 11 2019 10:56:21 GMT+023//Q- (Mitteleurop+//0Aw//9AKQ-ische Sommerzeit),1562835381971,21,female,Graduated High School,,hi lila,1562835842171,7.67,INSERT+AF8-A+AF8-NUMBER,1
ratingScaleLike,58,2,1041,How much do you like this picture?,images/028.jpg,28,NA,NA,,not at all,very,P,1911,colored,colored,NA,NA,Thu Jul 11 2019 10:56:21 GMT+023//Q- (Mitteleurop+//0Aw//9AKQ-ische Sommerzeit),1562835381971,21,female,Graduated High School,,hi lila,1562835842171,7.67,INSERT+AF8-A+AF8-NUMBER,1
ratingScaleLike,59,1,1049,How much do you like this picture?,images/059.jpg,59,NA,NA,,not at all,very,P,1909,monochrome,monochrome,NA,NA,Thu Jul 11 2019 10:56:21 GMT+023//Q- (Mitteleurop+//0Aw//9AKQ-ische Sommerzeit),1562835381971,21,female,Graduated High School,,hi lila,1562835842171,7.67,INSERT+AF8-A+AF8-NUMBER,1
ratingScaleLike,60,5,1403,How much do you like this picture?,images/074.jpg,74,NA,NA,,not at all,very,G,1919,colored,colored,NA,NA,Thu Jul 11 2019 10:56:21 GMT+023//Q- (Mitteleurop+//0Aw//9AKQ-ische Sommerzeit),1562835381971,21,female,Graduated High School,,hi lila,1562835842171,7.67,INSERT+AF8-A+AF8-NUMBER,1
ratingScaleLike,61,2,1175,How much do you like this picture?,images/026.jpg,26,NA,NA,,not at all,very,P,1911,colored,sepia,NA,NA,Thu Jul 11 2019 10:56:21 GMT+023//Q- (Mitteleurop+//0Aw//9AKQ-ische Sommerzeit),1562835381971,21,female,Graduated High School,,hi lila,1562835842171,7.67,INSERT+AF8-A+AF8-NUMBER,1
ratingScaleLike,62,1,907,How much do you like this picture?,images/019.jpg,19,NA,NA,,not at all,very,P,1911,colored,colored,NA,NA,Thu Jul 11 2019 10:56:21 GMT+023//Q- (Mitteleurop+//0Aw//9AKQ-ische Sommerzeit),1562835381971,21,female,Graduated High School,,hi lila,1562835842171,7.67,INSERT+AF8-A+AF8-NUMBER,1
ratingScaleLike,63,1,1363,How much do you like this picture?,images/069.jpg,69,NA,NA,,not at all,very,P,1910,monochrome,monochrome,NA,NA,Thu Jul 11 2019 10:56:21 GMT+023//Q- (Mitteleurop+//0Aw//9AKQ-ische Sommerzeit),1562835381971,21,female,Graduated High School,,hi lila,1562835842171,7.67,INSERT+AF8-A+AF8-NUMBER,1
ratingScaleLike,64,5,1377,How much do you like this picture?,images/086.jpg,86,NA,NA,,not at all,very,G,1913,colored,colored,NA,NA,Thu Jul 11 2019 10:56:21 GMT+023//Q- (Mitteleurop+//0Aw//9AKQ-ische Sommerzeit),1562835381971,21,female,Graduated High School,,hi lila,1562835842171,7.67,INSERT+AF8-A+AF8-NUMBER,1
ratingScaleLike,65,2,1928,How much do you like this picture?,images/104.jpg,104,NA,NA,,not at all,very,G,1915,monochrome,monochrome,NA,NA,Thu Jul 11 2019 10:56:21 GMT+023//Q- (Mitteleurop+//0Aw//9AKQ-ische Sommerzeit),1562835381971,21,female,Graduated High School,,hi lila,1562835842171,7.67,INSERT+AF8-A+AF8-NUMBER,1
ratingScaleLike,66,1,1459,How much do you like this picture?,images/052.jpg,52,NA,NA,,not at all,very,P,1911,monochrome,monochrome,NA,NA,Thu Jul 11 2019 10:56:21 GMT+023//Q- (Mitteleurop+//0Aw//9AKQ-ische Sommerzeit),1562835381971,21,female,Graduated High School,,hi lila,1562835842171,7.67,INSERT+AF8-A+AF8-NUMBER,1
ratingScaleLike,67,1,1356,How much do you like this picture?,images/033.jpg,33,NA,NA,,not at all,very,B,1910,colored,sepia,NA,NA,Thu Jul 11 2019 10:56:21 GMT+023//Q- (Mitteleurop+//0Aw//9AKQ-ische Sommerzeit),1562835381971,21,female,Graduated High School,,hi lila,1562835842171,7.67,INSERT+AF8-A+AF8-NUMBER,1
ratingScaleLike,68,5,1774,How much do you like this picture?,images/098.jpg,98,NA,NA,,not at all,very,G,1917,monochrome,monochrome,NA,NA,Thu Jul 11 2019 10:56:21 GMT+023//Q- (Mitteleurop+//0Aw//9AKQ-ische Sommerzeit),1562835381971,21,female,Graduated High School,,hi lila,1562835842171,7.67,INSERT+AF8-A+AF8-NUMBER,1
ratingScaleLike,69,2,1836,How much do you like this picture?,images/063.jpg,63,NA,NA,,not at all,very,P,1914,monochrome,monochrome,NA,NA,Thu Jul 11 2019 10:56:21 GMT+023//Q- (Mitteleurop+//0Aw//9AKQ-ische Sommerzeit),1562835381971,21,female,Graduated High School,,hi lila,1562835842171,7.67,INSERT+AF8-A+AF8-NUMBER,1
ratingScaleLike,70,1,1041,How much do you like this picture?,images/067.jpg,67,NA,NA,,not at all,very,P,1911,monochrome,monochrome,NA,NA,Thu Jul 11 2019 10:56:21 GMT+023//Q- (Mitteleurop+//0Aw//9AKQ-ische Sommerzeit),1562835381971,21,female,Graduated High School,,hi lila,1562835842171,7.67,INSERT+AF8-A+AF8-NUMBER,1
ratingScaleLike,71,6,1427,How much do you like this picture?,images/100.jpg,100,NA,NA,,not at all,very,G,1916,monochrome,monochrome,NA,NA,Thu Jul 11 2019 10:56:21 GMT+023//Q- (Mitteleurop+//0Aw//9AKQ-ische Sommerzeit),1562835381971,21,female,Graduated High School,,hi lila,1562835842171,7.67,INSERT+AF8-A+AF8-NUMBER,1
ratingScaleLike,72,1,1056,How much do you like this picture?,images/053.jpg,53,NA,NA,,not at all,very,P,1911,monochrome,monochrome,NA,NA,Thu Jul 11 2019 10:56:21 GMT+023//Q- (Mitteleurop+//0Aw//9AKQ-ische Sommerzeit),1562835381971,21,female,Graduated High School,,hi lila,1562835842171,7.67,INSERT+AF8-A+AF8-NUMBER,1
ratingScaleLike,73,2,915,How much do you like this picture?,images/015.jpg,15,NA,NA,,not at all,very,P,1910,colored,colored,NA,NA,Thu Jul 11 2019 10:56:21 GMT+023//Q- (Mitteleurop+//0Aw//9AKQ-ische Sommerzeit),1562835381971,21,female,Graduated High School,,hi lila,1562835842171,7.67,INSERT+AF8-A+AF8-NUMBER,1
ratingScaleLike,74,1,655,How much do you like this picture?,images/027.jpg,27,NA,NA,,not at all,very,P,1911,colored,sepia,NA,NA,Thu Jul 11 2019 10:56:21 GMT+023//Q- (Mitteleurop+//0Aw//9AKQ-ische Sommerzeit),1562835381971,21,female,Graduated High School,,hi lila,1562835842171,7.67,INSERT+AF8-A+AF8-NUMBER,1
ratingScaleLike,75,1,962,How much do you like this picture?,images/117.jpg,117,NA,NA,,not at all,very,B,1910,colored,colored,NA,NA,Thu Jul 11 2019 10:56:21 GMT+023//Q- (Mitteleurop+//0Aw//9AKQ-ische Sommerzeit),1562835381971,21,female,Graduated High School,,hi lila,1562835842171,7.67,INSERT+AF8-A+AF8-NUMBER,1
ratingScaleLike,76,1,851,How much do you like this picture?,images/004.jpg,4,NA,NA,,not at all,very,B,1910,colored,sepia,NA,NA,Thu Jul 11 2019 10:56:21 GMT+023//Q- (Mitteleurop+//0Aw//9AKQ-ische Sommerzeit),1562835381971,21,female,Graduated High School,,hi lila,1562835842171,7.67,INSERT+AF8-A+AF8-NUMBER,1
ratingScaleLike,77,2,1940,How much do you like this picture?,images/016.jpg,16,NA,NA,,not at all,very,P,1910,colored,sepia,NA,NA,Thu Jul 11 2019 10:56:21 GMT+023//Q- (Mitteleurop+//0Aw//9AKQ-ische Sommerzeit),1562835381971,21,female,Graduated High School,,hi lila,1562835842171,7.67,INSERT+AF8-A+AF8-NUMBER,1
ratingScaleLike,78,4,1845,How much do you like this picture?,images/120.jpg,120,NA,NA,,not at all,very,P,1912,monochrome,monochrome,NA,NA,Thu Jul 11 2019 10:56:21 GMT+023//Q- (Mitteleurop+//0Aw//9AKQ-ische Sommerzeit),1562835381971,21,female,Graduated High School,,hi lila,1562835842171,7.67,INSERT+AF8-A+AF8-NUMBER,1
ratingScaleLike,79,5,2098,How much do you like this picture?,images/089.jpg,89,NA,NA,,not at all,very,G,1913,colored,colored,NA,NA,Thu Jul 11 2019 10:56:21 GMT+023//Q- (Mitteleurop+//0Aw//9AKQ-ische Sommerzeit),1562835381971,21,female,Graduated High School,,hi lila,1562835842171,7.67,INSERT+AF8-A+AF8-NUMBER,1
ratingScaleLike,80,1,1482,How much do you like this picture?,images/047.jpg,47,NA,NA,,not at all,very,B,1909,monochrome,monochrome,NA,NA,Thu Jul 11 2019 10:56:21 GMT+023//Q- (Mitteleurop+//0Aw//9AKQ-ische Sommerzeit),1562835381971,21,female,Graduated High School,,hi lila,1562835842171,7.67,INSERT+AF8-A+AF8-NUMBER,1
ratingScaleLike,81,2,1427,How much do you like this picture?,images/116.jpg,116,NA,NA,,not at all,very,P,1911,monochrome,monochrome,NA,NA,Thu Jul 11 2019 10:56:21 GMT+023//Q- (Mitteleurop+//0Aw//9AKQ-ische Sommerzeit),1562835381971,21,female,Graduated High School,,hi lila,1562835842171,7.67,INSERT+AF8-A+AF8-NUMBER,1
ratingScaleLike,82,1,1095,How much do you like this picture?,images/009.jpg,9,NA,NA,,not at all,very,B,1911,colored,sepia,NA,NA,Thu Jul 11 2019 10:56:21 GMT+023//Q- (Mitteleurop+//0Aw//9AKQ-ische Sommerzeit),1562835381971,21,female,Graduated High School,,hi lila,1562835842171,7.67,INSERT+AF8-A+AF8-NUMBER,1
ratingScaleLike,83,1,852,How much do you like this picture?,images/034.jpg,34,NA,NA,,not at all,very,B,1911,colored,sepia,NA,NA,Thu Jul 11 2019 10:56:21 GMT+023//Q- (Mitteleurop+//0Aw//9AKQ-ische Sommerzeit),1562835381971,21,female,Graduated High School,,hi lila,1562835842171,7.67,INSERT+AF8-A+AF8-NUMBER,1
ratingScaleLike,84,1,1664,How much do you like this picture?,images/118.jpg,118,NA,NA,,not at all,very,P,1913,monochrome,monochrome,NA,NA,Thu Jul 11 2019 10:56:21 GMT+023//Q- (Mitteleurop+//0Aw//9AKQ-ische Sommerzeit),1562835381971,21,female,Graduated High School,,hi lila,1562835842171,7.67,INSERT+AF8-A+AF8-NUMBER,1
ratingScaleLike,85,2,1040,How much do you like this picture?,images/006.jpg,6,NA,NA,,not at all,very,B,1910,colored,sepia,NA,NA,Thu Jul 11 2019 10:56:21 GMT+023//Q- (Mitteleurop+//0Aw//9AKQ-ische Sommerzeit),1562835381971,21,female,Graduated High School,,hi lila,1562835842171,7.67,INSERT+AF8-A+AF8-NUMBER,1
ratingScaleLike,86,2,1884,How much do you like this picture?,images/070.jpg,70,NA,NA,,not at all,very,P,1910,monochrome,monochrome,NA,NA,Thu Jul 11 2019 10:56:21 GMT+023//Q- (Mitteleurop+//0Aw//9AKQ-ische Sommerzeit),1562835381971,21,female,Graduated High School,,hi lila,1562835842171,7.67,INSERT+AF8-A+AF8-NUMBER,1
ratingScaleLike,87,4,1474,How much do you like this picture?,images/108.jpg,108,NA,NA,,not at all,very,G,1914,monochrome,monochrome,NA,NA,Thu Jul 11 2019 10:56:21 GMT+023//Q- (Mitteleurop+//0Aw//9AKQ-ische Sommerzeit),1562835381971,21,female,Graduated High School,,hi lila,1562835842171,7.67,INSERT+AF8-A+AF8-NUMBER,1
ratingScaleLike,88,5,2318,How much do you like this picture?,images/096.jpg,96,NA,NA,,not at all,very,G,1913,monochrome,monochrome,NA,NA,Thu Jul 11 2019 10:56:21 GMT+023//Q- (Mitteleurop+//0Aw//9AKQ-ische Sommerzeit),1562835381971,21,female,Graduated High School,,hi lila,1562835842171,7.67,INSERT+AF8-A+AF8-NUMBER,1
ratingScaleLike,89,4,2926,How much do you like this picture?,images/073.jpg,73,NA,NA,,not at all,very,G,1914,colored,colored,NA,NA,Thu Jul 11 2019 10:56:21 GMT+023//Q- (Mitteleurop+//0Aw//9AKQ-ische Sommerzeit),1562835381971,21,female,Graduated High School,,hi lila,1562835842171,7.67,INSERT+AF8-A+AF8-NUMBER,1
ratingScaleLike,90,6,1380,How much do you like this picture?,images/077.jpg,77,NA,NA,,not at all,very,G,1915,colored,colored,NA,NA,Thu Jul 11 2019 10:56:21 GMT+023//Q- (Mitteleurop+//0Aw//9AKQ-ische Sommerzeit),1562835381971,21,female,Graduated High School,,hi lila,1562835842171,7.67,INSERT+AF8-A+AF8-NUMBER,1
ratingScaleLike,91,5,1151,How much do you like this picture?,images/087.jpg,87,NA,NA,,not at all,very,G,1913,colored,colored,NA,NA,Thu Jul 11 2019 10:56:21 GMT+023//Q- (Mitteleurop+//0Aw//9AKQ-ische Sommerzeit),1562835381971,21,female,Graduated High School,,hi lila,1562835842171,7.67,INSERT+AF8-A+AF8-NUMBER,1
ratingScaleLike,92,6,1120,How much do you like this picture?,images/078.jpg,78,NA,NA,,not at all,very,G,1914,colored,colored,NA,NA,Thu Jul 11 2019 10:56:21 GMT+023//Q- (Mitteleurop+//0Aw//9AKQ-ische Sommerzeit),1562835381971,21,female,Graduated High School,,hi lila,1562835842171,7.67,INSERT+AF8-A+AF8-NUMBER,1
ratingScaleLike,93,1,2295,How much do you like this picture?,images/014.jpg,14,NA,NA,,not at all,very,P,1910,colored,colored,NA,NA,Thu Jul 11 2019 10:56:21 GMT+023//Q- (Mitteleurop+//0Aw//9AKQ-ische Sommerzeit),1562835381971,21,female,Graduated High School,,hi lila,1562835842171,7.67,INSERT+AF8-A+AF8-NUMBER,1
ratingScaleLike,94,4,1797,How much do you like this picture?,images/008.jpg,8,NA,NA,,not at all,very,B,1909,colored,colored,NA,NA,Thu Jul 11 2019 10:56:21 GMT+023//Q- (Mitteleurop+//0Aw//9AKQ-ische Sommerzeit),1562835381971,21,female,Graduated High School,,hi lila,1562835842171,7.67,INSERT+AF8-A+AF8-NUMBER,1
ratingScaleLike,95,1,1625,How much do you like this picture?,images/060.jpg,60,NA,NA,,not at all,very,P,1912,monochrome,monochrome,NA,NA,Thu Jul 11 2019 10:56:21 GMT+023//Q- (Mitteleurop+//0Aw//9AKQ-ische Sommerzeit),1562835381971,21,female,Graduated High School,,hi lila,1562835842171,7.67,INSERT+AF8-A+AF8-NUMBER,1
ratingScaleLike,96,2,2760,How much do you like this picture?,images/065.jpg,65,NA,NA,,not at all,very,B,1911,monochrome,monochrome,NA,NA,Thu Jul 11 2019 10:56:21 GMT+023//Q- (Mitteleurop+//0Aw//9AKQ-ische Sommerzeit),1562835381971,21,female,Graduated High School,,hi lila,1562835842171,7.67,INSERT+AF8-A+AF8-NUMBER,1
ratingScaleLike,97,5,1948,How much do you like this picture?,images/091.jpg,91,NA,NA,,not at all,very,G,1915,colored,colored,NA,NA,Thu Jul 11 2019 10:56:21 GMT+023//Q- (Mitteleurop+//0Aw//9AKQ-ische Sommerzeit),1562835381971,21,female,Graduated High School,,hi lila,1562835842171,7.67,INSERT+AF8-A+AF8-NUMBER,1
ratingScaleLike,98,1,1404,How much do you like this picture?,images/062.jpg,62,NA,NA,,not at all,very,P,1912,monochrome,monochrome,NA,NA,Thu Jul 11 2019 10:56:21 GMT+023//Q- (Mitteleurop+//0Aw//9AKQ-ische Sommerzeit),1562835381971,21,female,Graduated High School,,hi lila,1562835842171,7.67,INSERT+AF8-A+AF8-NUMBER,1
ratingScaleLike,99,1,1506,How much do you like this picture?,images/094.jpg,94,NA,NA,,not at all,very,G,1917,monochrome,monochrome,NA,NA,Thu Jul 11 2019 10:56:21 GMT+023//Q- (Mitteleurop+//0Aw//9AKQ-ische Sommerzeit),1562835381971,21,female,Graduated High School,,hi lila,1562835842171,7.67,INSERT+AF8-A+AF8-NUMBER,1
ratingScaleLike,100,2,1120,How much do you like this picture?,images/007.jpg,7,NA,NA,,not at all,very,B,1913,colored,colored,NA,NA,Thu Jul 11 2019 10:56:21 GMT+023//Q- (Mitteleurop+//0Aw//9AKQ-ische Sommerzeit),1562835381971,21,female,Graduated High School,,hi lila,1562835842171,7.67,INSERT+AF8-A+AF8-NUMBER,1
ratingScaleLike,101,1,749,How much do you like this picture?,images/049.jpg,49,NA,NA,,not at all,very,B,1911,monochrome,monochrome,NA,NA,Thu Jul 11 2019 10:56:21 GMT+023//Q- (Mitteleurop+//0Aw//9AKQ-ische Sommerzeit),1562835381971,21,female,Graduated High School,,hi lila,1562835842171,7.67,INSERT+AF8-A+AF8-NUMBER,1
ratingScaleLike,102,1,1041,How much do you like this picture?,images/021.jpg,21,NA,NA,,not at all,very,P,1910,colored,sepia,NA,NA,Thu Jul 11 2019 10:56:21 GMT+023//Q- (Mitteleurop+//0Aw//9AKQ-ische Sommerzeit),1562835381971,21,female,Graduated High School,,hi lila,1562835842171,7.67,INSERT+AF8-A+AF8-NUMBER,1
ratingScaleLike,103,1,749,How much do you like this picture?,images/029.jpg,29,NA,NA,,not at all,very,P,1912,colored,colored,NA,NA,Thu Jul 11 2019 10:56:21 GMT+023//Q- (Mitteleurop+//0Aw//9AKQ-ische Sommerzeit),1562835381971,21,female,Graduated High School,,hi lila,1562835842171,7.67,INSERT+AF8-A+AF8-NUMBER,1
ratingScaleLike,104,1,772,How much do you like this picture?,images/038.jpg,38,NA,NA,,not at all,very,B,1910,monochrome,monochrome,NA,NA,Thu Jul 11 2019 10:56:21 GMT+023//Q- (Mitteleurop+//0Aw//9AKQ-ische Sommerzeit),1562835381971,21,female,Graduated High School,,hi lila,1562835842171,7.67,INSERT+AF8-A+AF8-NUMBER,1
ratingScaleLike,105,1,1190,How much do you like this picture?,images/013.jpg,13,NA,NA,,not at all,very,P,1912,colored,colored,NA,NA,Thu Jul 11 2019 10:56:21 GMT+023//Q- (Mitteleurop+//0Aw//9AKQ-ische Sommerzeit),1562835381971,21,female,Graduated High School,,hi lila,1562835842171,7.67,INSERT+AF8-A+AF8-NUMBER,1
ratingScaleLike,106,3,1442,How much do you like this picture?,images/012.jpg,12,NA,NA,,not at all,very,P,1909,colored,colored,NA,NA,Thu Jul 11 2019 10:56:21 GMT+023//Q- (Mitteleurop+//0Aw//9AKQ-ische Sommerzeit),1562835381971,21,female,Graduated High School,,hi lila,1562835842171,7.67,INSERT+AF8-A+AF8-NUMBER,1
ratingScaleLike,107,1,1380,How much do you like this picture?,images/020.jpg,20,NA,NA,,not at all,very,P,1911,colored,colored,NA,NA,Thu Jul 11 2019 10:56:21 GMT+023//Q- (Mitteleurop+//0Aw//9AKQ-ische Sommerzeit),1562835381971,21,female,Graduated High School,,hi lila,1562835842171,7.67,INSERT+AF8-A+AF8-NUMBER,1
ratingScaleLike,108,2,1016,How much do you like this picture?,images/041.jpg,41,NA,NA,,not at all,very,B,1908,monochrome,monochrome,NA,NA,Thu Jul 11 2019 10:56:21 GMT+023//Q- (Mitteleurop+//0Aw//9AKQ-ische Sommerzeit),1562835381971,21,female,Graduated High School,,hi lila,1562835842171,7.67,INSERT+AF8-A+AF8-NUMBER,1
ratingScaleLike,109,5,1411,How much do you like this picture?,images/107.jpg,107,NA,NA,,not at all,very,G,1914,monochrome,monochrome,NA,NA,Thu Jul 11 2019 10:56:21 GMT+023//Q- (Mitteleurop+//0Aw//9AKQ-ische Sommerzeit),1562835381971,21,female,Graduated High School,,hi lila,1562835842171,7.67,INSERT+AF8-A+AF8-NUMBER,1
ratingScaleLike,110,1,1853,How much do you like this picture?,images/064.jpg,64,NA,NA,,not at all,very,P,1911,monochrome,monochrome,NA,NA,Thu Jul 11 2019 10:56:21 GMT+023//Q- (Mitteleurop+//0Aw//9AKQ-ische Sommerzeit),1562835381971,21,female,Graduated High School,,hi lila,1562835842171,7.67,INSERT+AF8-A+AF8-NUMBER,1
ratingScaleLike,111,5,1506,How much do you like this picture?,images/111.jpg,111,NA,NA,,not at all,very,G,1915,monochrome,monochrome,NA,NA,Thu Jul 11 2019 10:56:21 GMT+023//Q- (Mitteleurop+//0Aw//9AKQ-ische Sommerzeit),1562835381971,21,female,Graduated High School,,hi lila,1562835842171,7.67,INSERT+AF8-A+AF8-NUMBER,1
ratingScaleLike,112,1,1096,How much do you like this picture?,images/039.jpg,39,NA,NA,,not at all,very,B,1911,monochrome,monochrome,NA,NA,Thu Jul 11 2019 10:56:21 GMT+023//Q- (Mitteleurop+//0Aw//9AKQ-ische Sommerzeit),1562835381971,21,female,Graduated High School,,hi lila,1562835842171,7.67,INSERT+AF8-A+AF8-NUMBER,1
ratingScaleLike,113,1,1404,How much do you like this picture?,images/018.jpg,18,NA,NA,,not at all,very,P,1911,colored,sepia,NA,NA,Thu Jul 11 2019 10:56:21 GMT+023//Q- (Mitteleurop+//0Aw//9AKQ-ische Sommerzeit),1562835381971,21,female,Graduated High School,,hi lila,1562835842171,7.67,INSERT+AF8-A+AF8-NUMBER,1
ratingScaleLike,114,6,1317,How much do you like this picture?,images/072.jpg,72,NA,NA,,not at all,very,G,1915,colored,colored,NA,NA,Thu Jul 11 2019 10:56:21 GMT+023//Q- (Mitteleurop+//0Aw//9AKQ-ische Sommerzeit),1562835381971,21,female,Graduated High School,,hi lila,1562835842171,7.67,INSERT+AF8-A+AF8-NUMBER,1
ratingScaleLike,115,1,1088,How much do you like this picture?,images/048.jpg,48,NA,NA,,not at all,very,B,1911,monochrome,monochrome,NA,NA,Thu Jul 11 2019 10:56:21 GMT+023//Q- (Mitteleurop+//0Aw//9AKQ-ische Sommerzeit),1562835381971,21,female,Graduated High School,,hi lila,1562835842171,7.67,INSERT+AF8-A+AF8-NUMBER,1
ratingScaleLike,116,7,1616,How much do you like this picture?,images/075.jpg,75,NA,NA,,not at all,very,G,1915,colored,colored,NA,NA,Thu Jul 11 2019 10:56:21 GMT+023//Q- (Mitteleurop+//0Aw//9AKQ-ische Sommerzeit),1562835381971,21,female,Graduated High School,,hi lila,1562835842171,7.67,INSERT+AF8-A+AF8-NUMBER,1
ratingScaleLike,117,6,1143,How much do you like this picture?,images/093.jpg,93,NA,NA,,not at all,very,G,1919,monochrome,monochrome,NA,NA,Thu Jul 11 2019 10:56:21 GMT+023//Q- (Mitteleurop+//0Aw//9AKQ-ische Sommerzeit),1562835381971,21,female,Graduated High School,,hi lila,1562835842171,7.67,INSERT+AF8-A+AF8-NUMBER,1
ratingScaleLike,118,3,1507,How much do you like this picture?,images/010.jpg,10,NA,NA,,not at all,very,P,1912,colored,colored,NA,NA,Thu Jul 11 2019 10:56:21 GMT+023//Q- (Mitteleurop+//0Aw//9AKQ-ische Sommerzeit),1562835381971,21,female,Graduated High School,,hi lila,1562835842171,7.67,INSERT+AF8-A+AF8-NUMBER,1
ratingScaleLike,119,2,914,How much do you like this picture?,images/085.jpg,85,NA,NA,,not at all,very,G,1914,colored,colored,NA,NA,Thu Jul 11 2019 10:56:21 GMT+023//Q- (Mitteleurop+//0Aw//9AKQ-ische Sommerzeit),1562835381971,21,female,Graduated High School,,hi lila,1562835842171,7.67,INSERT+AF8-A+AF8-NUMBER,1
ratingScaleLike,120,3,1457,How much do you like this picture?,images/001.jpg,1,NA,NA,,not at all,very,B,1909,colored,colored,NA,NA,Thu Jul 11 2019 10:56:21 GMT+023//Q- (Mitteleurop+//0Aw//9AKQ-ische Sommerzeit),1562835381971,21,female,Graduated High School,,hi lila,1562835842171,7.67,INSERT+AF8-A+AF8-NUMBER,1
ratingScaleDetect,1,5,10387,How well can you detect objects within this artwork?,images/111.jpg,111,NA,NA,,not at all,very,G,1915,monochrome,monochrome,NA,NA,Thu Jul 11 2019 10:56:21 GMT+023//Q- (Mitteleurop+//0Aw//9AKQ-ische Sommerzeit),1562835381971,21,female,Graduated High School,,hi lila,1562835842171,7.67,INSERT+AF8-A+AF8-NUMBER,1
ratingScaleDetect,2,7,1931,How well can you detect objects within this artwork?,images/107.jpg,107,NA,NA,,not at all,very,G,1914,monochrome,monochrome,NA,NA,Thu Jul 11 2019 10:56:21 GMT+023//Q- (Mitteleurop+//0Aw//9AKQ-ische Sommerzeit),1562835381971,21,female,Graduated High School,,hi lila,1562835842171,7.67,INSERT+AF8-A+AF8-NUMBER,1
ratingScaleDetect,3,7,1285,How well can you detect objects within this artwork?,images/072.jpg,72,NA,NA,,not at all,very,G,1915,colored,colored,NA,NA,Thu Jul 11 2019 10:56:21 GMT+023//Q- (Mitteleurop+//0Aw//9AKQ-ische Sommerzeit),1562835381971,21,female,Graduated High School,,hi lila,1562835842171,7.67,INSERT+AF8-A+AF8-NUMBER,1
ratingScaleDetect,4,7,836,How well can you detect objects within this artwork?,images/105.jpg,105,NA,NA,,not at all,very,G,1914,monochrome,monochrome,NA,NA,Thu Jul 11 2019 10:56:21 GMT+023//Q- (Mitteleurop+//0Aw//9AKQ-ische Sommerzeit),1562835381971,21,female,Graduated High School,,hi lila,1562835842171,7.67,INSERT+AF8-A+AF8-NUMBER,1
ratingScaleDetect,5,1,1238,How well can you detect objects within this artwork?,images/045.jpg,45,NA,NA,,not at all,very,B,1911,monochrome,monochrome,NA,NA,Thu Jul 11 2019 10:56:21 GMT+023//Q- (Mitteleurop+//0Aw//9AKQ-ische Sommerzeit),1562835381971,21,female,Graduated High School,,hi lila,1562835842171,7.67,INSERT+AF8-A+AF8-NUMBER,1
ratingScaleDetect,6,2,1254,How well can you detect objects within this artwork?,images/118.jpg,118,NA,NA,,not at all,very,P,1913,monochrome,monochrome,NA,NA,Thu Jul 11 2019 10:56:21 GMT+023//Q- (Mitteleurop+//0Aw//9AKQ-ische Sommerzeit),1562835381971,21,female,Graduated High School,,hi lila,1562835842171,7.67,INSERT+AF8-A+AF8-NUMBER,1
ratingScaleDetect,7,1,899,How well can you detect objects within this artwork?,images/116.jpg,116,NA,NA,,not at all,very,P,1911,monochrome,monochrome,NA,NA,Thu Jul 11 2019 10:56:21 GMT+023//Q- (Mitteleurop+//0Aw//9AKQ-ische Sommerzeit),1562835381971,21,female,Graduated High School,,hi lila,1562835842171,7.67,INSERT+AF8-A+AF8-NUMBER,1
ratingScaleDetect,8,2,930,How well can you detect objects within this artwork?,images/026.jpg,26,NA,NA,,not at all,very,P,1911,colored,sepia,NA,NA,Thu Jul 11 2019 10:56:21 GMT+023//Q- (Mitteleurop+//0Aw//9AKQ-ische Sommerzeit),1562835381971,21,female,Graduated High School,,hi lila,1562835842171,7.67,INSERT+AF8-A+AF8-NUMBER,1
ratingScaleDetect,9,5,1529,How well can you detect objects within this artwork?,images/061.jpg,61,NA,NA,,not at all,very,P,1909,monochrome,monochrome,NA,NA,Thu Jul 11 2019 10:56:21 GMT+023//Q- (Mitteleurop+//0Aw//9AKQ-ische Sommerzeit),1562835381971,21,female,Graduated High School,,hi lila,1562835842171,7.67,INSERT+AF8-A+AF8-NUMBER,1
ratingScaleDetect,10,1,1143,How well can you detect objects within this artwork?,images/065.jpg,65,NA,NA,,not at all,very,B,1911,monochrome,monochrome,NA,NA,Thu Jul 11 2019 10:56:21 GMT+023//Q- (Mitteleurop+//0Aw//9AKQ-ische Sommerzeit),1562835381971,21,female,Graduated High School,,hi lila,1562835842171,7.67,INSERT+AF8-A+AF8-NUMBER,1
ratingScaleDetect,11,4,1781,How well can you detect objects within this artwork?,images/089.jpg,89,NA,NA,,not at all,very,G,1913,colored,colored,NA,NA,Thu Jul 11 2019 10:56:21 GMT+023//Q- (Mitteleurop+//0Aw//9AKQ-ische Sommerzeit),1562835381971,21,female,Graduated High School,,hi lila,1562835842171,7.67,INSERT+AF8-A+AF8-NUMBER,1
ratingScaleDetect,12,1,1080,How well can you detect objects within this artwork?,images/068.jpg,68,NA,NA,,not at all,very,P,1910,monochrome,monochrome,NA,NA,Thu Jul 11 2019 10:56:21 GMT+023//Q- (Mitteleurop+//0Aw//9AKQ-ische Sommerzeit),1562835381971,21,female,Graduated High School,,hi lila,1562835842171,7.67,INSERT+AF8-A+AF8-NUMBER,1
ratingScaleDetect,13,2,1435,How well can you detect objects within this artwork?,images/059.jpg,59,NA,NA,,not at all,very,P,1909,monochrome,monochrome,NA,NA,Thu Jul 11 2019 10:56:21 GMT+023//Q- (Mitteleurop+//0Aw//9AKQ-ische Sommerzeit),1562835381971,21,female,Graduated High School,,hi lila,1562835842171,7.67,INSERT+AF8-A+AF8-NUMBER,1
ratingScaleDetect,14,4,1294,How well can you detect objects within this artwork?,images/012.jpg,12,NA,NA,,not at all,very,P,1909,colored,colored,NA,NA,Thu Jul 11 2019 10:56:21 GMT+023//Q- (Mitteleurop+//0Aw//9AKQ-ische Sommerzeit),1562835381971,21,female,Graduated High School,,hi lila,1562835842171,7.67,INSERT+AF8-A+AF8-NUMBER,1
ratingScaleDetect,15,1,939,How well can you detect objects within this artwork?,images/050.jpg,50,NA,NA,,not at all,very,B,1911,monochrome,monochrome,NA,NA,Thu Jul 11 2019 10:56:21 GMT+023//Q- (Mitteleurop+//0Aw//9AKQ-ische Sommerzeit),1562835381971,21,female,Graduated High School,,hi lila,1562835842171,7.67,INSERT+AF8-A+AF8-NUMBER,1
ratingScaleDetect,16,1,1743,How well can you detect objects within this artwork?,images/022.jpg,22,NA,NA,,not at all,very,P,1910,colored,sepia,NA,NA,Thu Jul 11 2019 10:56:21 GMT+023//Q- (Mitteleurop+//0Aw//9AKQ-ische Sommerzeit),1562835381971,21,female,Graduated High School,,hi lila,1562835842171,7.67,INSERT+AF8-A+AF8-NUMBER,1
ratingScaleDetect,17,6,1372,How well can you detect objects within this artwork?,images/106.jpg,106,NA,NA,,not at all,very,G,1914,monochrome,monochrome,NA,NA,Thu Jul 11 2019 10:56:21 GMT+023//Q- (Mitteleurop+//0Aw//9AKQ-ische Sommerzeit),1562835381971,21,female,Graduated High School,,hi lila,1562835842171,7.67,INSERT+AF8-A+AF8-NUMBER,1
ratingScaleDetect,18,5,1136,How well can you detect objects within this artwork?,images/101.jpg,101,NA,NA,,not at all,very,G,1915,monochrome,monochrome,NA,NA,Thu Jul 11 2019 10:56:21 GMT+023//Q- (Mitteleurop+//0Aw//9AKQ-ische Sommerzeit),1562835381971,21,female,Graduated High School,,hi lila,1562835842171,7.67,INSERT+AF8-A+AF8-NUMBER,1
ratingScaleDetect,19,1,1033,How well can you detect objects within this artwork?,images/051.jpg,51,NA,NA,,not at all,very,P,1913,monochrome,monochrome,NA,NA,Thu Jul 11 2019 10:56:21 GMT+023//Q- (Mitteleurop+//0Aw//9AKQ-ische Sommerzeit),1562835381971,21,female,Graduated High School,,hi lila,1562835842171,7.67,INSERT+AF8-A+AF8-NUMBER,1
ratingScaleDetect,20,6,1324,How well can you detect objects within this artwork?,images/088.jpg,88,NA,NA,,not at all,very,G,1916,colored,colored,NA,NA,Thu Jul 11 2019 10:56:21 GMT+023//Q- (Mitteleurop+//0Aw//9AKQ-ische Sommerzeit),1562835381971,21,female,Graduated High School,,hi lila,1562835842171,7.67,INSERT+AF8-A+AF8-NUMBER,1
ratingScaleDetect,21,1,1317,How well can you detect objects within this artwork?,images/037.jpg,37,NA,NA,,not at all,very,B,1909,monochrome,monochrome,NA,NA,Thu Jul 11 2019 10:56:21 GMT+023//Q- (Mitteleurop+//0Aw//9AKQ-ische Sommerzeit),1562835381971,21,female,Graduated High School,,hi lila,1562835842171,7.67,INSERT+AF8-A+AF8-NUMBER,1
ratingScaleDetect,22,6,1237,How well can you detect objects within this artwork?,images/048.jpg,48,NA,NA,,not at all,very,B,1911,monochrome,monochrome,NA,NA,Thu Jul 11 2019 10:56:21 GMT+023//Q- (Mitteleurop+//0Aw//9AKQ-ische Sommerzeit),1562835381971,21,female,Graduated High School,,hi lila,1562835842171,7.67,INSERT+AF8-A+AF8-NUMBER,1
ratingScaleDetect,23,1,1553,How well can you detect objects within this artwork?,images/085.jpg,85,NA,NA,,not at all,very,G,1914,colored,colored,NA,NA,Thu Jul 11 2019 10:56:21 GMT+023//Q- (Mitteleurop+//0Aw//9AKQ-ische Sommerzeit),1562835381971,21,female,Graduated High School,,hi lila,1562835842171,7.67,INSERT+AF8-A+AF8-NUMBER,1
ratingScaleDetect,24,1,2003,How well can you detect objects within this artwork?,images/018.jpg,18,NA,NA,,not at all,very,P,1911,colored,sepia,NA,NA,Thu Jul 11 2019 10:56:21 GMT+023//Q- (Mitteleurop+//0Aw//9AKQ-ische Sommerzeit),1562835381971,21,female,Graduated High School,,hi lila,1562835842171,7.67,INSERT+AF8-A+AF8-NUMBER,1
ratingScaleDetect,25,6,1537,How well can you detect objects within this artwork?,images/087.jpg,87,NA,NA,,not at all,very,G,1913,colored,colored,NA,NA,Thu Jul 11 2019 10:56:21 GMT+023//Q- (Mitteleurop+//0Aw//9AKQ-ische Sommerzeit),1562835381971,21,female,Graduated High School,,hi lila,1562835842171,7.67,INSERT+AF8-A+AF8-NUMBER,1
ratingScaleDetect,26,5,1995,How well can you detect objects within this artwork?,images/108.jpg,108,NA,NA,,not at all,very,G,1914,monochrome,monochrome,NA,NA,Thu Jul 11 2019 10:56:21 GMT+023//Q- (Mitteleurop+//0Aw//9AKQ-ische Sommerzeit),1562835381971,21,female,Graduated High School,,hi lila,1562835842171,7.67,INSERT+AF8-A+AF8-NUMBER,1
ratingScaleDetect,27,5,1364,How well can you detect objects within this artwork?,images/096.jpg,96,NA,NA,,not at all,very,G,1913,monochrome,monochrome,NA,NA,Thu Jul 11 2019 10:56:21 GMT+023//Q- (Mitteleurop+//0Aw//9AKQ-ische Sommerzeit),1562835381971,21,female,Graduated High School,,hi lila,1562835842171,7.67,INSERT+AF8-A+AF8-NUMBER,1
ratingScaleDetect,28,1,1277,How well can you detect objects within this artwork?,images/003.jpg,3,NA,NA,,not at all,very,B,1910,colored,sepia,NA,NA,Thu Jul 11 2019 10:56:21 GMT+023//Q- (Mitteleurop+//0Aw//9AKQ-ische Sommerzeit),1562835381971,21,female,Graduated High School,,hi lila,1562835842171,7.67,INSERT+AF8-A+AF8-NUMBER,1
ratingScaleDetect,29,5,1742,How well can you detect objects within this artwork?,images/083.jpg,83,NA,NA,,not at all,very,G,1912,colored,colored,NA,NA,Thu Jul 11 2019 10:56:21 GMT+023//Q- (Mitteleurop+//0Aw//9AKQ-ische Sommerzeit),1562835381971,21,female,Graduated High School,,hi lila,1562835842171,7.67,INSERT+AF8-A+AF8-NUMBER,1
ratingScaleDetect,30,4,2571,How well can you detect objects within this artwork?,images/005.jpg,5,NA,NA,,not at all,very,B,1910,colored,colored,NA,NA,Thu Jul 11 2019 10:56:21 GMT+023//Q- (Mitteleurop+//0Aw//9AKQ-ische Sommerzeit),1562835381971,21,female,Graduated High School,,hi lila,1562835842171,7.67,INSERT+AF8-A+AF8-NUMBER,1
ratingScaleDetect,31,1,1174,How well can you detect objects within this artwork?,images/040.jpg,40,NA,NA,,not at all,very,B,1912,monochrome,monochrome,NA,NA,Thu Jul 11 2019 10:56:21 GMT+023//Q- (Mitteleurop+//0Aw//9AKQ-ische Sommerzeit),1562835381971,21,female,Graduated High School,,hi lila,1562835842171,7.67,INSERT+AF8-A+AF8-NUMBER,1
ratingScaleDetect,32,3,1672,How well can you detect objects within this artwork?,images/058.jpg,58,NA,NA,,not at all,very,P,1914,monochrome,monochrome,NA,NA,Thu Jul 11 2019 10:56:21 GMT+023//Q- (Mitteleurop+//0Aw//9AKQ-ische Sommerzeit),1562835381971,21,female,Graduated High School,,hi lila,1562835842171,7.67,INSERT+AF8-A+AF8-NUMBER,1
ratingScaleDetect,33,1,1049,How well can you detect objects within this artwork?,images/013.jpg,13,NA,NA,,not at all,very,P,1912,colored,colored,NA,NA,Thu Jul 11 2019 10:56:21 GMT+023//Q- (Mitteleurop+//0Aw//9AKQ-ische Sommerzeit),1562835381971,21,female,Graduated High School,,hi lila,1562835842171,7.67,INSERT+AF8-A+AF8-NUMBER,1
ratingScaleDetect,34,5,1496,How well can you detect objects within this artwork?,images/063.jpg,63,NA,NA,,not at all,very,P,1914,monochrome,monochrome,NA,NA,Thu Jul 11 2019 10:56:21 GMT+023//Q- (Mitteleurop+//0Aw//9AKQ-ische Sommerzeit),1562835381971,21,female,Graduated High School,,hi lila,1562835842171,7.67,INSERT+AF8-A+AF8-NUMBER,1
ratingScaleDetect,35,1,964,How well can you detect objects within this artwork?,images/047.jpg,47,NA,NA,,not at all,very,B,1909,monochrome,monochrome,NA,NA,Thu Jul 11 2019 10:56:21 GMT+023//Q- (Mitteleurop+//0Aw//9AKQ-ische Sommerzeit),1562835381971,21,female,Graduated High School,,hi lila,1562835842171,7.67,INSERT+AF8-A+AF8-NUMBER,1
ratingScaleDetect,36,2,1111,How well can you detect objects within this artwork?,images/015.jpg,15,NA,NA,,not at all,very,P,1910,colored,colored,NA,NA,Thu Jul 11 2019 10:56:21 GMT+023//Q- (Mitteleurop+//0Aw//9AKQ-ische Sommerzeit),1562835381971,21,female,Graduated High School,,hi lila,1562835842171,7.67,INSERT+AF8-A+AF8-NUMBER,1
ratingScaleDetect,37,5,1647,How well can you detect objects within this artwork?,images/086.jpg,86,NA,NA,,not at all,very,G,1913,colored,colored,NA,NA,Thu Jul 11 2019 10:56:21 GMT+023//Q- (Mitteleurop+//0Aw//9AKQ-ische Sommerzeit),1562835381971,21,female,Graduated High School,,hi lila,1562835842171,7.67,INSERT+AF8-A+AF8-NUMBER,1
ratingScaleDetect,38,6,1585,How well can you detect objects within this artwork?,images/097.jpg,97,NA,NA,,not at all,very,G,1917,monochrome,monochrome,NA,NA,Thu Jul 11 2019 10:56:21 GMT+023//Q- (Mitteleurop+//0Aw//9AKQ-ische Sommerzeit),1562835381971,21,female,Graduated High School,,hi lila,1562835842171,7.67,INSERT+AF8-A+AF8-NUMBER,1
ratingScaleDetect,39,6,1514,How well can you detect objects within this artwork?,images/079.jpg,79,NA,NA,,not at all,very,G,1914,colored,colored,NA,NA,Thu Jul 11 2019 10:56:21 GMT+023//Q- (Mitteleurop+//0Aw//9AKQ-ische Sommerzeit),1562835381971,21,female,Graduated High School,,hi lila,1562835842171,7.67,INSERT+AF8-A+AF8-NUMBER,1
ratingScaleDetect,40,6,994,How well can you detect objects within this artwork?,images/084.jpg,84,NA,NA,,not at all,very,G,1912,colored,colored,NA,NA,Thu Jul 11 2019 10:56:21 GMT+023//Q- (Mitteleurop+//0Aw//9AKQ-ische Sommerzeit),1562835381971,21,female,Graduated High School,,hi lila,1562835842171,7.67,INSERT+AF8-A+AF8-NUMBER,1
ratingScaleDetect,41,6,1609,How well can you detect objects within this artwork?,images/109.jpg,109,NA,NA,,not at all,very,G,1913,monochrome,monochrome,NA,NA,Thu Jul 11 2019 10:56:21 GMT+023//Q- (Mitteleurop+//0Aw//9AKQ-ische Sommerzeit),1562835381971,21,female,Graduated High School,,hi lila,1562835842171,7.67,INSERT+AF8-A+AF8-NUMBER,1
ratingScaleDetect,42,1,1119,How well can you detect objects within this artwork?,images/028.jpg,28,NA,NA,,not at all,very,P,1911,colored,colored,NA,NA,Thu Jul 11 2019 10:56:21 GMT+023//Q- (Mitteleurop+//0Aw//9AKQ-ische Sommerzeit),1562835381971,21,female,Graduated High School,,hi lila,1562835842171,7.67,INSERT+AF8-A+AF8-NUMBER,1
ratingScaleDetect,43,7,1285,How well can you detect objects within this artwork?,images/099.jpg,99,NA,NA,,not at all,very,G,1916,monochrome,monochrome,NA,NA,Thu Jul 11 2019 10:56:21 GMT+023//Q- (Mitteleurop+//0Aw//9AKQ-ische Sommerzeit),1562835381971,21,female,Graduated High School,,hi lila,1562835842171,7.67,INSERT+AF8-A+AF8-NUMBER,1
ratingScaleDetect,44,6,1363,How well can you detect objects within this artwork?,images/078.jpg,78,NA,NA,,not at all,very,G,1914,colored,colored,NA,NA,Thu Jul 11 2019 10:56:21 GMT+023//Q- (Mitteleurop+//0Aw//9AKQ-ische Sommerzeit),1562835381971,21,female,Graduated High School,,hi lila,1562835842171,7.67,INSERT+AF8-A+AF8-NUMBER,1
ratingScaleDetect,45,1,1829,How well can you detect objects within this artwork?,images/043.jpg,43,NA,NA,,not at all,very,B,1909,monochrome,monochrome,NA,NA,Thu Jul 11 2019 10:56:21 GMT+023//Q- (Mitteleurop+//0Aw//9AKQ-ische Sommerzeit),1562835381971,21,female,Graduated High School,,hi lila,1562835842171,7.67,INSERT+AF8-A+AF8-NUMBER,1
ratingScaleDetect,46,1,883,How well can you detect objects within this artwork?,images/038.jpg,38,NA,NA,,not at all,very,B,1910,monochrome,monochrome,NA,NA,Thu Jul 11 2019 10:56:21 GMT+023//Q- (Mitteleurop+//0Aw//9AKQ-ische Sommerzeit),1562835381971,21,female,Graduated High School,,hi lila,1562835842171,7.67,INSERT+AF8-A+AF8-NUMBER,1
ratingScaleDetect,47,2,843,How well can you detect objects within this artwork?,images/044.jpg,44,NA,NA,,not at all,very,B,1910,monochrome,monochrome,NA,NA,Thu Jul 11 2019 10:56:21 GMT+023//Q- (Mitteleurop+//0Aw//9AKQ-ische Sommerzeit),1562835381971,21,female,Graduated High School,,hi lila,1562835842171,7.67,INSERT+AF8-A+AF8-NUMBER,1
ratingScaleDetect,48,6,1230,How well can you detect objects within this artwork?,images/076.jpg,76,NA,NA,,not at all,very,G,1915,colored,colored,NA,NA,Thu Jul 11 2019 10:56:21 GMT+023//Q- (Mitteleurop+//0Aw//9AKQ-ische Sommerzeit),1562835381971,21,female,Graduated High School,,hi lila,1562835842171,7.67,INSERT+AF8-A+AF8-NUMBER,1
ratingScaleDetect,49,1,1095,How well can you detect objects within this artwork?,images/034.jpg,34,NA,NA,,not at all,very,B,1911,colored,sepia,NA,NA,Thu Jul 11 2019 10:56:21 GMT+023//Q- (Mitteleurop+//0Aw//9AKQ-ische Sommerzeit),1562835381971,21,female,Graduated High School,,hi lila,1562835842171,7.67,INSERT+AF8-A+AF8-NUMBER,1
ratingScaleDetect,50,1,1253,How well can you detect objects within this artwork?,images/007.jpg,7,NA,NA,,not at all,very,B,1913,colored,colored,NA,NA,Thu Jul 11 2019 10:56:21 GMT+023//Q- (Mitteleurop+//0Aw//9AKQ-ische Sommerzeit),1562835381971,21,female,Graduated High School,,hi lila,1562835842171,7.67,INSERT+AF8-A+AF8-NUMBER,1
ratingScaleDetect,51,2,1127,How well can you detect objects within this artwork?,images/053.jpg,53,NA,NA,,not at all,very,P,1911,monochrome,monochrome,NA,NA,Thu Jul 11 2019 10:56:21 GMT+023//Q- (Mitteleurop+//0Aw//9AKQ-ische Sommerzeit),1562835381971,21,female,Graduated High School,,hi lila,1562835842171,7.67,INSERT+AF8-A+AF8-NUMBER,1
ratingScaleDetect,52,1,835,How well can you detect objects within this artwork?,images/030.jpg,30,NA,NA,,not at all,very,P,1912,colored,sepia,NA,NA,Thu Jul 11 2019 10:56:21 GMT+023//Q- (Mitteleurop+//0Aw//9AKQ-ische Sommerzeit),1562835381971,21,female,Graduated High School,,hi lila,1562835842171,7.67,INSERT+AF8-A+AF8-NUMBER,1
ratingScaleDetect,53,6,1852,How well can you detect objects within this artwork?,images/077.jpg,77,NA,NA,,not at all,very,G,1915,colored,colored,NA,NA,Thu Jul 11 2019 10:56:21 GMT+023//Q- (Mitteleurop+//0Aw//9AKQ-ische Sommerzeit),1562835381971,21,female,Graduated High School,,hi lila,1562835842171,7.67,INSERT+AF8-A+AF8-NUMBER,1
ratingScaleDetect,54,1,1089,How well can you detect objects within this artwork?,images/060.jpg,60,NA,NA,,not at all,very,P,1912,monochrome,monochrome,NA,NA,Thu Jul 11 2019 10:56:21 GMT+023//Q- (Mitteleurop+//0Aw//9AKQ-ische Sommerzeit),1562835381971,21,female,Graduated High School,,hi lila,1562835842171,7.67,INSERT+AF8-A+AF8-NUMBER,1
ratingScaleDetect,55,1,1316,How well can you detect objects within this artwork?,images/042.jpg,42,NA,NA,,not at all,very,B,1909,monochrome,monochrome,NA,NA,Thu Jul 11 2019 10:56:21 GMT+023//Q- (Mitteleurop+//0Aw//9AKQ-ische Sommerzeit),1562835381971,21,female,Graduated High School,,hi lila,1562835842171,7.67,INSERT+AF8-A+AF8-NUMBER,1
ratingScaleDetect,56,1,1246,How well can you detect objects within this artwork?,images/115.jpg,115,NA,NA,,not at all,very,P,1910,colored,sepia,NA,NA,Thu Jul 11 2019 10:56:21 GMT+023//Q- (Mitteleurop+//0Aw//9AKQ-ische Sommerzeit),1562835381971,21,female,Graduated High School,,hi lila,1562835842171,7.67,INSERT+AF8-A+AF8-NUMBER,1
ratingScaleDetect,57,2,1190,How well can you detect objects within this artwork?,images/056.jpg,56,NA,NA,,not at all,very,P,1911,monochrome,monochrome,NA,NA,Thu Jul 11 2019 10:56:21 GMT+023//Q- (Mitteleurop+//0Aw//9AKQ-ische Sommerzeit),1562835381971,21,female,Graduated High School,,hi lila,1562835842171,7.67,INSERT+AF8-A+AF8-NUMBER,1
ratingScaleDetect,58,1,891,How well can you detect objects within this artwork?,images/119.jpg,119,NA,NA,,not at all,very,B,1913,colored,colored,NA,NA,Thu Jul 11 2019 10:56:21 GMT+023//Q- (Mitteleurop+//0Aw//9AKQ-ische Sommerzeit),1562835381971,21,female,Graduated High School,,hi lila,1562835842171,7.67,INSERT+AF8-A+AF8-NUMBER,1
ratingScaleDetect,59,1,1183,How well can you detect objects within this artwork?,images/017.jpg,17,NA,NA,,not at all,very,P,1911,colored,sepia,NA,NA,Thu Jul 11 2019 10:56:21 GMT+023//Q- (Mitteleurop+//0Aw//9AKQ-ische Sommerzeit),1562835381971,21,female,Graduated High School,,hi lila,1562835842171,7.67,INSERT+AF8-A+AF8-NUMBER,1
ratingScaleDetect,60,1,4367,How well can you detect objects within this artwork?,images/104.jpg,104,NA,NA,,not at all,very,G,1915,monochrome,monochrome,NA,NA,Thu Jul 11 2019 10:56:21 GMT+023//Q- (Mitteleurop+//0Aw//9AKQ-ische Sommerzeit),1562835381971,21,female,Graduated High School,,hi lila,1562835842171,7.67,INSERT+AF8-A+AF8-NUMBER,1
ratingScaleDetect,61,1,1964,How well can you detect objects within this artwork?,images/069.jpg,69,NA,NA,,not at all,very,P,1910,monochrome,monochrome,NA,NA,Thu Jul 11 2019 10:56:21 GMT+023//Q- (Mitteleurop+//0Aw//9AKQ-ische Sommerzeit),1562835381971,21,female,Graduated High School,,hi lila,1562835842171,7.67,INSERT+AF8-A+AF8-NUMBER,1
ratingScaleDetect,62,1,899,How well can you detect objects within this artwork?,images/049.jpg,49,NA,NA,,not at all,very,B,1911,monochrome,monochrome,NA,NA,Thu Jul 11 2019 10:56:21 GMT+023//Q- (Mitteleurop+//0Aw//9AKQ-ische Sommerzeit),1562835381971,21,female,Graduated High School,,hi lila,1562835842171,7.67,INSERT+AF8-A+AF8-NUMBER,1
ratingScaleDetect,63,2,1238,How well can you detect objects within this artwork?,images/095.jpg,95,NA,NA,,not at all,very,G,1917,monochrome,monochrome,NA,NA,Thu Jul 11 2019 10:56:21 GMT+023//Q- (Mitteleurop+//0Aw//9AKQ-ische Sommerzeit),1562835381971,21,female,Graduated High School,,hi lila,1562835842171,7.67,INSERT+AF8-A+AF8-NUMBER,1
ratingScaleDetect,64,1,685,How well can you detect objects within this artwork?,images/024.jpg,24,NA,NA,,not at all,very,P,1911,colored,colored,NA,NA,Thu Jul 11 2019 10:56:21 GMT+023//Q- (Mitteleurop+//0Aw//9AKQ-ische Sommerzeit),1562835381971,21,female,Graduated High School,,hi lila,1562835842171,7.67,INSERT+AF8-A+AF8-NUMBER,1
ratingScaleDetect,65,1,1371,How well can you detect objects within this artwork?,images/073.jpg,73,NA,NA,,not at all,very,G,1914,colored,colored,NA,NA,Thu Jul 11 2019 10:56:21 GMT+023//Q- (Mitteleurop+//0Aw//9AKQ-ische Sommerzeit),1562835381971,21,female,Graduated High School,,hi lila,1562835842171,7.67,INSERT+AF8-A+AF8-NUMBER,1
ratingScaleDetect,66,1,779,How well can you detect objects within this artwork?,images/054.jpg,54,NA,NA,,not at all,very,P,1910,monochrome,monochrome,NA,NA,Thu Jul 11 2019 10:56:21 GMT+023//Q- (Mitteleurop+//0Aw//9AKQ-ische Sommerzeit),1562835381971,21,female,Graduated High School,,hi lila,1562835842171,7.67,INSERT+AF8-A+AF8-NUMBER,1
ratingScaleDetect,67,3,1726,How well can you detect objects within this artwork?,images/001.jpg,1,NA,NA,,not at all,very,B,1909,colored,colored,NA,NA,Thu Jul 11 2019 10:56:21 GMT+023//Q- (Mitteleurop+//0Aw//9AKQ-ische Sommerzeit),1562835381971,21,female,Graduated High School,,hi lila,1562835842171,7.67,INSERT+AF8-A+AF8-NUMBER,1
ratingScaleDetect,68,1,1010,How well can you detect objects within this artwork?,images/033.jpg,33,NA,NA,,not at all,very,B,1910,colored,sepia,NA,NA,Thu Jul 11 2019 10:56:21 GMT+023//Q- (Mitteleurop+//0Aw//9AKQ-ische Sommerzeit),1562835381971,21,female,Graduated High School,,hi lila,1562835842171,7.67,INSERT+AF8-A+AF8-NUMBER,1
ratingScaleDetect,69,2,1040,How well can you detect objects within this artwork?,images/113.jpg,113,NA,NA,,not at all,very,P,1910,colored,sepia,NA,NA,Thu Jul 11 2019 10:56:21 GMT+023//Q- (Mitteleurop+//0Aw//9AKQ-ische Sommerzeit),1562835381971,21,female,Graduated High School,,hi lila,1562835842171,7.67,INSERT+AF8-A+AF8-NUMBER,1
ratingScaleDetect,70,1,970,How well can you detect objects within this artwork?,images/025.jpg,25,NA,NA,,not at all,very,P,1911,colored,colored,NA,NA,Thu Jul 11 2019 10:56:21 GMT+023//Q- (Mitteleurop+//0Aw//9AKQ-ische Sommerzeit),1562835381971,21,female,Graduated High School,,hi lila,1562835842171,7.67,INSERT+AF8-A+AF8-NUMBER,1
ratingScaleDetect,71,1,1624,How well can you detect objects within this artwork?,images/064.jpg,64,NA,NA,,not at all,very,P,1911,monochrome,monochrome,NA,NA,Thu Jul 11 2019 10:56:21 GMT+023//Q- (Mitteleurop+//0Aw//9AKQ-ische Sommerzeit),1562835381971,21,female,Graduated High School,,hi lila,1562835842171,7.67,INSERT+AF8-A+AF8-NUMBER,1
ratingScaleDetect,72,1,939,How well can you detect objects within this artwork?,images/103.jpg,103,NA,NA,,not at all,very,G,1916,monochrome,monochrome,NA,NA,Thu Jul 11 2019 10:56:21 GMT+023//Q- (Mitteleurop+//0Aw//9AKQ-ische Sommerzeit),1562835381971,21,female,Graduated High School,,hi lila,1562835842171,7.67,INSERT+AF8-A+AF8-NUMBER,1
ratingScaleDetect,73,2,994,How well can you detect objects within this artwork?,images/112.jpg,112,NA,NA,,not at all,very,P,1911,colored,sepia,NA,NA,Thu Jul 11 2019 10:56:21 GMT+023//Q- (Mitteleurop+//0Aw//9AKQ-ische Sommerzeit),1562835381971,21,female,Graduated High School,,hi lila,1562835842171,7.67,INSERT+AF8-A+AF8-NUMBER,1
ratingScaleDetect,74,1,1229,How well can you detect objects within this artwork?,images/014.jpg,14,NA,NA,,not at all,very,P,1910,colored,colored,NA,NA,Thu Jul 11 2019 10:56:21 GMT+023//Q- (Mitteleurop+//0Aw//9AKQ-ische Sommerzeit),1562835381971,21,female,Graduated High School,,hi lila,1562835842171,7.67,INSERT+AF8-A+AF8-NUMBER,1
ratingScaleDetect,75,1,898,How well can you detect objects within this artwork?,images/114.jpg,114,NA,NA,,not at all,very,B,1909,monochrome,monochrome,NA,NA,Thu Jul 11 2019 10:56:21 GMT+023//Q- (Mitteleurop+//0Aw//9AKQ-ische Sommerzeit),1562835381971,21,female,Graduated High School,,hi lila,1562835842171,7.67,INSERT+AF8-A+AF8-NUMBER,1
ratingScaleDetect,76,1,1285,How well can you detect objects within this artwork?,images/120.jpg,120,NA,NA,,not at all,very,P,1912,monochrome,monochrome,NA,NA,Thu Jul 11 2019 10:56:21 GMT+023//Q- (Mitteleurop+//0Aw//9AKQ-ische Sommerzeit),1562835381971,21,female,Graduated High School,,hi lila,1562835842171,7.67,INSERT+AF8-A+AF8-NUMBER,1
ratingScaleDetect,77,1,1175,How well can you detect objects within this artwork?,images/020.jpg,20,NA,NA,,not at all,very,P,1911,colored,colored,NA,NA,Thu Jul 11 2019 10:56:21 GMT+023//Q- (Mitteleurop+//0Aw//9AKQ-ische Sommerzeit),1562835381971,21,female,Graduated High School,,hi lila,1562835842171,7.67,INSERT+AF8-A+AF8-NUMBER,1
ratingScaleDetect,78,2,1821,How well can you detect objects within this artwork?,images/016.jpg,16,NA,NA,,not at all,very,P,1910,colored,sepia,NA,NA,Thu Jul 11 2019 10:56:21 GMT+023//Q- (Mitteleurop+//0Aw//9AKQ-ische Sommerzeit),1562835381971,21,female,Graduated High School,,hi lila,1562835842171,7.67,INSERT+AF8-A+AF8-NUMBER,1
ratingScaleDetect,79,1,852,How well can you detect objects within this artwork?,images/039.jpg,39,NA,NA,,not at all,very,B,1911,monochrome,monochrome,NA,NA,Thu Jul 11 2019 10:56:21 GMT+023//Q- (Mitteleurop+//0Aw//9AKQ-ische Sommerzeit),1562835381971,21,female,Graduated High School,,hi lila,1562835842171,7.67,INSERT+AF8-A+AF8-NUMBER,1
ratingScaleDetect,80,1,1049,How well can you detect objects within this artwork?,images/067.jpg,67,NA,NA,,not at all,very,P,1911,monochrome,monochrome,NA,NA,Thu Jul 11 2019 10:56:21 GMT+023//Q- (Mitteleurop+//0Aw//9AKQ-ische Sommerzeit),1562835381971,21,female,Graduated High School,,hi lila,1562835842171,7.67,INSERT+AF8-A+AF8-NUMBER,1
ratingScaleDetect,81,1,1024,How well can you detect objects within this artwork?,images/027.jpg,27,NA,NA,,not at all,very,P,1911,colored,sepia,NA,NA,Thu Jul 11 2019 10:56:21 GMT+023//Q- (Mitteleurop+//0Aw//9AKQ-ische Sommerzeit),1562835381971,21,female,Graduated High School,,hi lila,1562835842171,7.67,INSERT+AF8-A+AF8-NUMBER,1
ratingScaleDetect,82,6,1223,How well can you detect objects within this artwork?,images/080.jpg,80,NA,NA,,not at all,very,G,1914,colored,colored,NA,NA,Thu Jul 11 2019 10:56:21 GMT+023//Q- (Mitteleurop+//0Aw//9AKQ-ische Sommerzeit),1562835381971,21,female,Graduated High School,,hi lila,1562835842171,7.67,INSERT+AF8-A+AF8-NUMBER,1
ratingScaleDetect,83,2,1284,How well can you detect objects within this artwork?,images/006.jpg,6,NA,NA,,not at all,very,B,1910,colored,sepia,NA,NA,Thu Jul 11 2019 10:56:21 GMT+023//Q- (Mitteleurop+//0Aw//9AKQ-ische Sommerzeit),1562835381971,21,female,Graduated High School,,hi lila,1562835842171,7.67,INSERT+AF8-A+AF8-NUMBER,1
ratingScaleDetect,84,1,962,How well can you detect objects within this artwork?,images/057.jpg,57,NA,NA,,not at all,very,P,1911,monochrome,monochrome,NA,NA,Thu Jul 11 2019 10:56:21 GMT+023//Q- (Mitteleurop+//0Aw//9AKQ-ische Sommerzeit),1562835381971,21,female,Graduated High School,,hi lila,1562835842171,7.67,INSERT+AF8-A+AF8-NUMBER,1
ratingScaleDetect,85,2,1695,How well can you detect objects within this artwork?,images/110.jpg,110,NA,NA,,not at all,very,G,1912,monochrome,monochrome,NA,NA,Thu Jul 11 2019 10:56:21 GMT+023//Q- (Mitteleurop+//0Aw//9AKQ-ische Sommerzeit),1562835381971,21,female,Graduated High School,,hi lila,1562835842171,7.67,INSERT+AF8-A+AF8-NUMBER,1
ratingScaleDetect,86,6,1356,How well can you detect objects within this artwork?,images/075.jpg,75,NA,NA,,not at all,very,G,1915,colored,colored,NA,NA,Thu Jul 11 2019 10:56:21 GMT+023//Q- (Mitteleurop+//0Aw//9AKQ-ische Sommerzeit),1562835381971,21,female,Graduated High School,,hi lila,1562835842171,7.67,INSERT+AF8-A+AF8-NUMBER,1
ratingScaleDetect,87,5,1167,How well can you detect objects within this artwork?,images/082.jpg,82,NA,NA,,not at all,very,G,1913,colored,colored,NA,NA,Thu Jul 11 2019 10:56:21 GMT+023//Q- (Mitteleurop+//0Aw//9AKQ-ische Sommerzeit),1562835381971,21,female,Graduated High School,,hi lila,1562835842171,7.67,INSERT+AF8-A+AF8-NUMBER,1
ratingScaleDetect,88,1,1719,How well can you detect objects within this artwork?,images/117.jpg,117,NA,NA,,not at all,very,B,1910,colored,colored,NA,NA,Thu Jul 11 2019 10:56:21 GMT+023//Q- (Mitteleurop+//0Aw//9AKQ-ische Sommerzeit),1562835381971,21,female,Graduated High School,,hi lila,1562835842171,7.67,INSERT+AF8-A+AF8-NUMBER,1
ratingScaleDetect,89,1,4099,How well can you detect objects within this artwork?,images/009.jpg,9,NA,NA,,not at all,very,B,1911,colored,sepia,NA,NA,Thu Jul 11 2019 10:56:21 GMT+023//Q- (Mitteleurop+//0Aw//9AKQ-ische Sommerzeit),1562835381971,21,female,Graduated High School,,hi lila,1562835842171,7.67,INSERT+AF8-A+AF8-NUMBER,1
ratingScaleDetect,90,2,2381,How well can you detect objects within this artwork?,images/011.jpg,11,NA,NA,,not at all,very,B,1911,colored,sepia,NA,NA,Thu Jul 11 2019 10:56:21 GMT+023//Q- (Mitteleurop+//0Aw//9AKQ-ische Sommerzeit),1562835381971,21,female,Graduated High School,,hi lila,1562835842171,7.67,INSERT+AF8-A+AF8-NUMBER,1
ratingScaleDetect,91,5,1805,How well can you detect objects within this artwork?,images/091.jpg,91,NA,NA,,not at all,very,G,1915,colored,colored,NA,NA,Thu Jul 11 2019 10:56:21 GMT+023//Q- (Mitteleurop+//0Aw//9AKQ-ische Sommerzeit),1562835381971,21,female,Graduated High School,,hi lila,1562835842171,7.67,INSERT+AF8-A+AF8-NUMBER,1
ratingScaleDetect,92,1,1632,How well can you detect objects within this artwork?,images/002.jpg,2,NA,NA,,not at all,very,B,1909,colored,sepia,NA,NA,Thu Jul 11 2019 10:56:21 GMT+023//Q- (Mitteleurop+//0Aw//9AKQ-ische Sommerzeit),1562835381971,21,female,Graduated High School,,hi lila,1562835842171,7.67,INSERT+AF8-A+AF8-NUMBER,1
ratingScaleDetect,93,1,733,How well can you detect objects within this artwork?,images/004.jpg,4,NA,NA,,not at all,very,B,1910,colored,sepia,NA,NA,Thu Jul 11 2019 10:56:21 GMT+023//Q- (Mitteleurop+//0Aw//9AKQ-ische Sommerzeit),1562835381971,21,female,Graduated High School,,hi lila,1562835842171,7.67,INSERT+AF8-A+AF8-NUMBER,1
ratingScaleDetect,94,1,1286,How well can you detect objects within this artwork?,images/019.jpg,19,NA,NA,,not at all,very,P,1911,colored,colored,NA,NA,Thu Jul 11 2019 10:56:21 GMT+023//Q- (Mitteleurop+//0Aw//9AKQ-ische Sommerzeit),1562835381971,21,female,Graduated High School,,hi lila,1562835842171,7.67,INSERT+AF8-A+AF8-NUMBER,1
ratingScaleDetect,95,6,1198,How well can you detect objects within this artwork?,images/074.jpg,74,NA,NA,,not at all,very,G,1919,colored,colored,NA,NA,Thu Jul 11 2019 10:56:21 GMT+023//Q- (Mitteleurop+//0Aw//9AKQ-ische Sommerzeit),1562835381971,21,female,Graduated High School,,hi lila,1562835842171,7.67,INSERT+AF8-A+AF8-NUMBER,1
ratingScaleDetect,96,1,1071,How well can you detect objects within this artwork?,images/031.jpg,31,NA,NA,,not at all,very,P,1909,colored,colored,NA,NA,Thu Jul 11 2019 10:56:21 GMT+023//Q- (Mitteleurop+//0Aw//9AKQ-ische Sommerzeit),1562835381971,21,female,Graduated High School,,hi lila,1562835842171,7.67,INSERT+AF8-A+AF8-NUMBER,1
ratingScaleDetect,97,3,1080,How well can you detect objects within this artwork?,images/008.jpg,8,NA,NA,,not at all,very,B,1909,colored,colored,NA,NA,Thu Jul 11 2019 10:56:21 GMT+023//Q- (Mitteleurop+//0Aw//9AKQ-ische Sommerzeit),1562835381971,21,female,Graduated High School,,hi lila,1562835842171,7.67,INSERT+AF8-A+AF8-NUMBER,1
ratingScaleDetect,98,1,1175,How well can you detect objects within this artwork?,images/055.jpg,55,NA,NA,,not at all,very,P,1911,monochrome,monochrome,NA,NA,Thu Jul 11 2019 10:56:21 GMT+023//Q- (Mitteleurop+//0Aw//9AKQ-ische Sommerzeit),1562835381971,21,female,Graduated High School,,hi lila,1562835842171,7.67,INSERT+AF8-A+AF8-NUMBER,1
ratingScaleDetect,99,5,1505,How well can you detect objects within this artwork?,images/092.jpg,92,NA,NA,,not at all,very,G,1919,monochrome,monochrome,NA,NA,Thu Jul 11 2019 10:56:21 GMT+023//Q- (Mitteleurop+//0Aw//9AKQ-ische Sommerzeit),1562835381971,21,female,Graduated High School,,hi lila,1562835842171,7.67,INSERT+AF8-A+AF8-NUMBER,1
ratingScaleDetect,100,1,1229,How well can you detect objects within this artwork?,images/046.jpg,46,NA,NA,,not at all,very,B,1911,monochrome,monochrome,NA,NA,Thu Jul 11 2019 10:56:21 GMT+023//Q- (Mitteleurop+//0Aw//9AKQ-ische Sommerzeit),1562835381971,21,female,Graduated High School,,hi lila,1562835842171,7.67,INSERT+AF8-A+AF8-NUMBER,1
ratingScaleDetect,101,2,1041,How well can you detect objects within this artwork?,images/071.jpg,71,NA,NA,,not at all,very,P,1911,monochrome,monochrome,NA,NA,Thu Jul 11 2019 10:56:21 GMT+023//Q- (Mitteleurop+//0Aw//9AKQ-ische Sommerzeit),1562835381971,21,female,Graduated High School,,hi lila,1562835842171,7.67,INSERT+AF8-A+AF8-NUMBER,1
ratingScaleDetect,102,7,1916,How well can you detect objects within this artwork?,images/102.jpg,102,NA,NA,,not at all,very,G,1915,monochrome,monochrome,NA,NA,Thu Jul 11 2019 10:56:21 GMT+023//Q- (Mitteleurop+//0Aw//9AKQ-ische Sommerzeit),1562835381971,21,female,Graduated High School,,hi lila,1562835842171,7.67,INSERT+AF8-A+AF8-NUMBER,1
ratingScaleDetect,103,1,30400,How well can you detect objects within this artwork?,images/062.jpg,62,NA,NA,,not at all,very,P,1912,monochrome,monochrome,NA,NA,Thu Jul 11 2019 10:56:21 GMT+023//Q- (Mitteleurop+//0Aw//9AKQ-ische Sommerzeit),1562835381971,21,female,Graduated High School,,hi lila,1562835842171,7.67,INSERT+AF8-A+AF8-NUMBER,1
ratingScaleDetect,104,2,1672,How well can you detect objects within this artwork?,images/066.jpg,66,NA,NA,,not at all,very,B,1910,monochrome,monochrome,NA,NA,Thu Jul 11 2019 10:56:21 GMT+023//Q- (Mitteleurop+//0Aw//9AKQ-ische Sommerzeit),1562835381971,21,female,Graduated High School,,hi lila,1562835842171,7.67,INSERT+AF8-A+AF8-NUMBER,1
ratingScaleDetect,105,7,6333,How well can you detect objects within this artwork?,images/100.jpg,100,NA,NA,,not at all,very,G,1916,monochrome,monochrome,NA,NA,Thu Jul 11 2019 10:56:21 GMT+023//Q- (Mitteleurop+//0Aw//9AKQ-ische Sommerzeit),1562835381971,21,female,Graduated High School,,hi lila,1562835842171,7.67,INSERT+AF8-A+AF8-NUMBER,1
ratingScaleDetect,106,1,11027,How well can you detect objects within this artwork?,images/041.jpg,41,NA,NA,,not at all,very,B,1908,monochrome,monochrome,NA,NA,Thu Jul 11 2019 10:56:21 GMT+023//Q- (Mitteleurop+//0Aw//9AKQ-ische Sommerzeit),1562835381971,21,female,Graduated High School,,hi lila,1562835842171,7.67,INSERT+AF8-A+AF8-NUMBER,1
ratingScaleDetect,107,4,1617,How well can you detect objects within this artwork?,images/023.jpg,23,NA,NA,,not at all,very,P,1911,colored,colored,NA,NA,Thu Jul 11 2019 10:56:21 GMT+023//Q- (Mitteleurop+//0Aw//9AKQ-ische Sommerzeit),1562835381971,21,female,Graduated High School,,hi lila,1562835842171,7.67,INSERT+AF8-A+AF8-NUMBER,1
ratingScaleDetect,108,6,1377,How well can you detect objects within this artwork?,images/093.jpg,93,NA,NA,,not at all,very,G,1919,monochrome,monochrome,NA,NA,Thu Jul 11 2019 10:56:21 GMT+023//Q- (Mitteleurop+//0Aw//9AKQ-ische Sommerzeit),1562835381971,21,female,Graduated High School,,hi lila,1562835842171,7.67,INSERT+AF8-A+AF8-NUMBER,1
ratingScaleDetect,109,6,1759,How well can you detect objects within this artwork?,images/081.jpg,81,NA,NA,,not at all,very,G,1914,colored,colored,NA,NA,Thu Jul 11 2019 10:56:21 GMT+023//Q- (Mitteleurop+//0Aw//9AKQ-ische Sommerzeit),1562835381971,21,female,Graduated High School,,hi lila,1562835842171,7.67,INSERT+AF8-A+AF8-NUMBER,1
ratingScaleDetect,110,3,1579,How well can you detect objects within this artwork?,images/094.jpg,94,NA,NA,,not at all,very,G,1917,monochrome,monochrome,NA,NA,Thu Jul 11 2019 10:56:21 GMT+023//Q- (Mitteleurop+//0Aw//9AKQ-ische Sommerzeit),1562835381971,21,female,Graduated High School,,hi lila,1562835842171,7.67,INSERT+AF8-A+AF8-NUMBER,1
ratingScaleDetect,111,2,1892,How well can you detect objects within this artwork?,images/098.jpg,98,NA,NA,,not at all,very,G,1917,monochrome,monochrome,NA,NA,Thu Jul 11 2019 10:56:21 GMT+023//Q- (Mitteleurop+//0Aw//9AKQ-ische Sommerzeit),1562835381971,21,female,Graduated High School,,hi lila,1562835842171,7.67,INSERT+AF8-A+AF8-NUMBER,1
ratingScaleDetect,112,1,1105,How well can you detect objects within this artwork?,images/021.jpg,21,NA,NA,,not at all,very,P,1910,colored,sepia,NA,NA,Thu Jul 11 2019 10:56:21 GMT+023//Q- (Mitteleurop+//0Aw//9AKQ-ische Sommerzeit),1562835381971,21,female,Graduated High School,,hi lila,1562835842171,7.67,INSERT+AF8-A+AF8-NUMBER,1
ratingScaleDetect,113,5,1498,How well can you detect objects within this artwork?,images/090.jpg,90,NA,NA,,not at all,very,G,1914,colored,colored,NA,NA,Thu Jul 11 2019 10:56:21 GMT+023//Q- (Mitteleurop+//0Aw//9AKQ-ische Sommerzeit),1562835381971,21,female,Graduated High School,,hi lila,1562835842171,7.67,INSERT+AF8-A+AF8-NUMBER,1
ratingScaleDetect,114,1,1861,How well can you detect objects within this artwork?,images/010.jpg,10,NA,NA,,not at all,very,P,1912,colored,colored,NA,NA,Thu Jul 11 2019 10:56:21 GMT+023//Q- (Mitteleurop+//0Aw//9AKQ-ische Sommerzeit),1562835381971,21,female,Graduated High School,,hi lila,1562835842171,7.67,INSERT+AF8-A+AF8-NUMBER,1
ratingScaleDetect,115,1,1537,How well can you detect objects within this artwork?,images/035.jpg,35,NA,NA,,not at all,very,B,1911,colored,sepia,NA,NA,Thu Jul 11 2019 10:56:21 GMT+023//Q- (Mitteleurop+//0Aw//9AKQ-ische Sommerzeit),1562835381971,21,female,Graduated High School,,hi lila,1562835842171,7.67,INSERT+AF8-A+AF8-NUMBER,1
ratingScaleDetect,116,1,985,How well can you detect objects within this artwork?,images/029.jpg,29,NA,NA,,not at all,very,P,1912,colored,colored,NA,NA,Thu Jul 11 2019 10:56:21 GMT+023//Q- (Mitteleurop+//0Aw//9AKQ-ische Sommerzeit),1562835381971,21,female,Graduated High School,,hi lila,1562835842171,7.67,INSERT+AF8-A+AF8-NUMBER,1
ratingScaleDetect,117,2,1072,How well can you detect objects within this artwork?,images/052.jpg,52,NA,NA,,not at all,very,P,1911,monochrome,monochrome,NA,NA,Thu Jul 11 2019 10:56:21 GMT+023//Q- (Mitteleurop+//0Aw//9AKQ-ische Sommerzeit),1562835381971,21,female,Graduated High School,,hi lila,1562835842171,7.67,INSERT+AF8-A+AF8-NUMBER,1
ratingScaleDetect,118,1,970,How well can you detect objects within this artwork?,images/032.jpg,32,NA,NA,,not at all,very,P,1910,colored,sepia,NA,NA,Thu Jul 11 2019 10:56:21 GMT+023//Q- (Mitteleurop+//0Aw//9AKQ-ische Sommerzeit),1562835381971,21,female,Graduated High School,,hi lila,1562835842171,7.67,INSERT+AF8-A+AF8-NUMBER,1
ratingScaleDetect,119,2,1269,How well can you detect objects within this artwork?,images/036.jpg,36,NA,NA,,not at all,very,B,1908,monochrome,monochrome,NA,NA,Thu Jul 11 2019 10:56:21 GMT+023//Q- (Mitteleurop+//0Aw//9AKQ-ische Sommerzeit),1562835381971,21,female,Graduated High School,,hi lila,1562835842171,7.67,INSERT+AF8-A+AF8-NUMBER,1
ratingScaleDetect,120,2,1206,How well can you detect objects within this artwork?,images/070.jpg,70,NA,NA,,not at all,very,P,1910,monochrome,monochrome,NA,NA,Thu Jul 11 2019 10:56:21 GMT+023//Q- (Mitteleurop+//0Aw//9AKQ-ische Sommerzeit),1562835381971,21,female,Graduated High School,,hi lila,1562835842171,7.67,INSERT+AF8-A+AF8-NUMBER,1
expertise,1,2,2010,How much expertise do you have in cubism?,NA,NA,NA,NA,,none,a lot,NA,NA,NA,NA,NA,NA,Thu Jul 11 2019 10:56:21 GMT+023//Q- (Mitteleurop+//0Aw//9AKQ-ische Sommerzeit),1562835381971,21,female,Graduated High School,,hi lila,1562835842171,7.67,INSERT+AF8-A+AF8-NUMBER,1
xplab,1,No,1853,Are you attending the class 'Experimental Psychology Lab' ?,NA,NA,NA,NA,,NA,NA,NA,NA,NA,NA,Yes,No,Thu Jul 11 2019 10:56:21 GMT+023//Q- (Mitteleurop+//0Aw//9AKQ-ische Sommerzeit),1562835381971,21,female,Graduated High School,,hi lila,1562835842171,7.67,INSERT+AF8-A+AF8-NUMBER,1
colourVisionTest1,1,74,5554,Which number do you see here?,vision/ishihara.png,0,0,74,,NA,NA,NA,NA,NA,NA,NA,NA,Thu Jul 11 2019 10:56:30 GMT+023//Q- (Mitteleurop+//0Aw//9AKQ-ische Sommerzeit),1562835390804,21,female,Graduated High School,,,1562835786063,6.58765,INSERT+AF8-A+AF8-NUMBER,2
colourVisionTest2,1,7,2608,Which number do you see here?,vision/ishihara2.jpg,0,0,7,,NA,NA,NA,NA,NA,NA,NA,NA,Thu Jul 11 2019 10:56:30 GMT+023//Q- (Mitteleurop+//0Aw//9AKQ-ische Sommerzeit),1562835390804,21,female,Graduated High School,,,1562835786063,6.58765,INSERT+AF8-A+AF8-NUMBER,2
visionTest,1,FELOPZD,8578,Please make sure you are one arm+AC0-length away from your computer screen. Write the letters from line 7 (below the green line) into the box below. Please use capital letters without tabs or spaces in between the letters.,vision/Snellen+AF8-chart.jpg,0,1,FELOPZD,,NA,NA,NA,NA,NA,NA,NA,NA,Thu Jul 11 2019 10:56:30 GMT+023//Q- (Mitteleurop+//0Aw//9AKQ-ische Sommerzeit),1562835390804,21,female,Graduated High School,,,1562835786063,6.58765,INSERT+AF8-A+AF8-NUMBER,2
ratingScaleLike,1,5,8087,How much do you like this picture?,images/075.jpg,75,NA,NA,,not at all,very,G,1915,colored,colored,NA,NA,Thu Jul 11 2019 10:56:30 GMT+023//Q- (Mitteleurop+//0Aw//9AKQ-ische Sommerzeit),1562835390804,21,female,Graduated High School,,,1562835786063,6.58765,INSERT+AF8-A+AF8-NUMBER,2
ratingScaleLike,2,2,1806,How much do you like this picture?,images/045.jpg,45,NA,NA,,not at all,very,B,1911,monochrome,monochrome,NA,NA,Thu Jul 11 2019 10:56:30 GMT+023//Q- (Mitteleurop+//0Aw//9AKQ-ische Sommerzeit),1562835390804,21,female,Graduated High School,,,1562835786063,6.58765,INSERT+AF8-A+AF8-NUMBER,2
ratingScaleLike,3,3,2406,How much do you like this picture?,images/020.jpg,20,NA,NA,,not at all,very,P,1911,colored,colored,NA,NA,Thu Jul 11 2019 10:56:30 GMT+023//Q- (Mitteleurop+//0Aw//9AKQ-ische Sommerzeit),1562835390804,21,female,Graduated High School,,,1562835786063,6.58765,INSERT+AF8-A+AF8-NUMBER,2
ratingScaleLike,4,3,1648,How much do you like this picture?,images/060.jpg,60,NA,NA,,not at all,very,P,1912,monochrome,monochrome,NA,NA,Thu Jul 11 2019 10:56:30 GMT+023//Q- (Mitteleurop+//0Aw//9AKQ-ische Sommerzeit),1562835390804,21,female,Graduated High School,,,1562835786063,6.58765,INSERT+AF8-A+AF8-NUMBER,2
ratingScaleLike,5,4,5097,How much do you like this picture?,images/093.jpg,93,NA,NA,,not at all,very,G,1919,monochrome,monochrome,NA,NA,Thu Jul 11 2019 10:56:30 GMT+023//Q- (Mitteleurop+//0Aw//9AKQ-ische Sommerzeit),1562835390804,21,female,Graduated High School,,,1562835786063,6.58765,INSERT+AF8-A+AF8-NUMBER,2
ratingScaleLike,6,1,1251,How much do you like this picture?,images/086.jpg,86,NA,NA,,not at all,very,G,1913,colored,colored,NA,NA,Thu Jul 11 2019 10:56:30 GMT+023//Q- (Mitteleurop+//0Aw//9AKQ-ische Sommerzeit),1562835390804,21,female,Graduated High School,,,1562835786063,6.58765,INSERT+AF8-A+AF8-NUMBER,2
ratingScaleLike,7,1,1042,How much do you like this picture?,images/056.jpg,56,NA,NA,,not at all,very,P,1911,monochrome,monochrome,NA,NA,Thu Jul 11 2019 10:56:30 GMT+023//Q- (Mitteleurop+//0Aw//9AKQ-ische Sommerzeit),1562835390804,21,female,Graduated High School,,,1562835786063,6.58765,INSERT+AF8-A+AF8-NUMBER,2
ratingScaleLike,8,3,2483,How much do you like this picture?,images/096.jpg,96,NA,NA,,not at all,very,G,1913,monochrome,monochrome,NA,NA,Thu Jul 11 2019 10:56:30 GMT+023//Q- (Mitteleurop+//0Aw//9AKQ-ische Sommerzeit),1562835390804,21,female,Graduated High School,,,1562835786063,6.58765,INSERT+AF8-A+AF8-NUMBER,2
ratingScaleLike,9,2,1724,How much do you like this picture?,images/105.jpg,105,NA,NA,,not at all,very,G,1914,monochrome,monochrome,NA,NA,Thu Jul 11 2019 10:56:30 GMT+023//Q- (Mitteleurop+//0Aw//9AKQ-ische Sommerzeit),1562835390804,21,female,Graduated High School,,,1562835786063,6.58765,INSERT+AF8-A+AF8-NUMBER,2
ratingScaleLike,10,2,1086,How much do you like this picture?,images/120.jpg,120,NA,NA,,not at all,very,P,1912,monochrome,monochrome,NA,NA,Thu Jul 11 2019 10:56:30 GMT+023//Q- (Mitteleurop+//0Aw//9AKQ-ische Sommerzeit),1562835390804,21,female,Graduated High School,,,1562835786063,6.58765,INSERT+AF8-A+AF8-NUMBER,2
ratingScaleLike,11,6,5145,How much do you like this picture?,images/081.jpg,81,NA,NA,,not at all,very,G,1914,colored,colored,NA,NA,Thu Jul 11 2019 10:56:30 GMT+023//Q- (Mitteleurop+//0Aw//9AKQ-ische Sommerzeit),1562835390804,21,female,Graduated High School,,,1562835786063,6.58765,INSERT+AF8-A+AF8-NUMBER,2
ratingScaleLike,12,2,2507,How much do you like this picture?,images/025.jpg,25,NA,NA,,not at all,very,P,1911,colored,colored,NA,NA,Thu Jul 11 2019 10:56:30 GMT+023//Q- (Mitteleurop+//0Aw//9AKQ-ische Sommerzeit),1562835390804,21,female,Graduated High School,,,1562835786063,6.58765,INSERT+AF8-A+AF8-NUMBER,2
ratingScaleLike,13,1,1315,How much do you like this picture?,images/028.jpg,28,NA,NA,,not at all,very,P,1911,colored,colored,NA,NA,Thu Jul 11 2019 10:56:30 GMT+023//Q- (Mitteleurop+//0Aw//9AKQ-ische Sommerzeit),1562835390804,21,female,Graduated High School,,,1562835786063,6.58765,INSERT+AF8-A+AF8-NUMBER,2
ratingScaleLike,14,1,790,How much do you like this picture?,images/022.jpg,22,NA,NA,,not at all,very,P,1910,colored,sepia,NA,NA,Thu Jul 11 2019 10:56:30 GMT+023//Q- (Mitteleurop+//0Aw//9AKQ-ische Sommerzeit),1562835390804,21,female,Graduated High School,,,1562835786063,6.58765,INSERT+AF8-A+AF8-NUMBER,2
ratingScaleLike,15,1,1828,How much do you like this picture?,images/058.jpg,58,NA,NA,,not at all,very,P,1914,monochrome,monochrome,NA,NA,Thu Jul 11 2019 10:56:30 GMT+023//Q- (Mitteleurop+//0Aw//9AKQ-ische Sommerzeit),1562835390804,21,female,Graduated High School,,,1562835786063,6.58765,INSERT+AF8-A+AF8-NUMBER,2
ratingScaleLike,16,1,1813,How much do you like this picture?,images/073.jpg,73,NA,NA,,not at all,very,G,1914,colored,colored,NA,NA,Thu Jul 11 2019 10:56:30 GMT+023//Q- (Mitteleurop+//0Aw//9AKQ-ische Sommerzeit),1562835390804,21,female,Graduated High School,,,1562835786063,6.58765,INSERT+AF8-A+AF8-NUMBER,2
ratingScaleLike,17,1,1387,How much do you like this picture?,images/006.jpg,6,NA,NA,,not at all,very,B,1910,colored,sepia,NA,NA,Thu Jul 11 2019 10:56:30 GMT+023//Q- (Mitteleurop+//0Aw//9AKQ-ische Sommerzeit),1562835390804,21,female,Graduated High School,,,1562835786063,6.58765,INSERT+AF8-A+AF8-NUMBER,2
ratingScaleLike,18,5,3526,How much do you like this picture?,images/091.jpg,91,NA,NA,,not at all,very,G,1915,colored,colored,NA,NA,Thu Jul 11 2019 10:56:30 GMT+023//Q- (Mitteleurop+//0Aw//9AKQ-ische Sommerzeit),1562835390804,21,female,Graduated High School,,,1562835786063,6.58765,INSERT+AF8-A+AF8-NUMBER,2
ratingScaleLike,19,1,1660,How much do you like this picture?,images/065.jpg,65,NA,NA,,not at all,very,B,1911,monochrome,monochrome,NA,NA,Thu Jul 11 2019 10:56:30 GMT+023//Q- (Mitteleurop+//0Aw//9AKQ-ische Sommerzeit),1562835390804,21,female,Graduated High School,,,1562835786063,6.58765,INSERT+AF8-A+AF8-NUMBER,2
ratingScaleLike,20,1,1571,How much do you like this picture?,images/119.jpg,119,NA,NA,,not at all,very,B,1913,colored,colored,NA,NA,Thu Jul 11 2019 10:56:30 GMT+023//Q- (Mitteleurop+//0Aw//9AKQ-ische Sommerzeit),1562835390804,21,female,Graduated High School,,,1562835786063,6.58765,INSERT+AF8-A+AF8-NUMBER,2
ratingScaleLike,21,1,1119,How much do you like this picture?,images/038.jpg,38,NA,NA,,not at all,very,B,1910,monochrome,monochrome,NA,NA,Thu Jul 11 2019 10:56:30 GMT+023//Q- (Mitteleurop+//0Aw//9AKQ-ische Sommerzeit),1562835390804,21,female,Graduated High School,,,1562835786063,6.58765,INSERT+AF8-A+AF8-NUMBER,2
ratingScaleLike,22,1,914,How much do you like this picture?,images/026.jpg,26,NA,NA,,not at all,very,P,1911,colored,sepia,NA,NA,Thu Jul 11 2019 10:56:30 GMT+023//Q- (Mitteleurop+//0Aw//9AKQ-ische Sommerzeit),1562835390804,21,female,Graduated High School,,,1562835786063,6.58765,INSERT+AF8-A+AF8-NUMBER,2
ratingScaleLike,23,1,906,How much do you like this picture?,images/090.jpg,90,NA,NA,,not at all,very,G,1914,colored,colored,NA,NA,Thu Jul 11 2019 10:56:30 GMT+023//Q- (Mitteleurop+//0Aw//9AKQ-ische Sommerzeit),1562835390804,21,female,Graduated High School,,,1562835786063,6.58765,INSERT+AF8-A+AF8-NUMBER,2
ratingScaleLike,24,1,1018,How much do you like this picture?,images/031.jpg,31,NA,NA,,not at all,very,P,1909,colored,colored,NA,NA,Thu Jul 11 2019 10:56:30 GMT+023//Q- (Mitteleurop+//0Aw//9AKQ-ische Sommerzeit),1562835390804,21,female,Graduated High School,,,1562835786063,6.58765,INSERT+AF8-A+AF8-NUMBER,2
ratingScaleLike,25,1,1227,How much do you like this picture?,images/092.jpg,92,NA,NA,,not at all,very,G,1919,monochrome,monochrome,NA,NA,Thu Jul 11 2019 10:56:30 GMT+023//Q- (Mitteleurop+//0Aw//9AKQ-ische Sommerzeit),1562835390804,21,female,Graduated High School,,,1562835786063,6.58765,INSERT+AF8-A+AF8-NUMBER,2
ratingScaleLike,26,1,874,How much do you like this picture?,images/004.jpg,4,NA,NA,,not at all,very,B,1910,colored,sepia,NA,NA,Thu Jul 11 2019 10:56:30 GMT+023//Q- (Mitteleurop+//0Aw//9AKQ-ische Sommerzeit),1562835390804,21,female,Graduated High School,,,1562835786063,6.58765,INSERT+AF8-A+AF8-NUMBER,2
ratingScaleLike,27,1,970,How much do you like this picture?,images/094.jpg,94,NA,NA,,not at all,very,G,1917,monochrome,monochrome,NA,NA,Thu Jul 11 2019 10:56:30 GMT+023//Q- (Mitteleurop+//0Aw//9AKQ-ische Sommerzeit),1562835390804,21,female,Graduated High School,,,1562835786063,6.58765,INSERT+AF8-A+AF8-NUMBER,2
ratingScaleLike,28,2,1828,How much do you like this picture?,images/005.jpg,5,NA,NA,,not at all,very,B,1910,colored,colored,NA,NA,Thu Jul 11 2019 10:56:30 GMT+023//Q- (Mitteleurop+//0Aw//9AKQ-ische Sommerzeit),1562835390804,21,female,Graduated High School,,,1562835786063,6.58765,INSERT+AF8-A+AF8-NUMBER,2
ratingScaleLike,29,2,1383,How much do you like this picture?,images/015.jpg,15,NA,NA,,not at all,very,P,1910,colored,colored,NA,NA,Thu Jul 11 2019 10:56:30 GMT+023//Q- (Mitteleurop+//0Aw//9AKQ-ische Sommerzeit),1562835390804,21,female,Graduated High School,,,1562835786063,6.58765,INSERT+AF8-A+AF8-NUMBER,2
ratingScaleLike,30,2,1154,How much do you like this picture?,images/019.jpg,19,NA,NA,,not at all,very,P,1911,colored,colored,NA,NA,Thu Jul 11 2019 10:56:30 GMT+023//Q- (Mitteleurop+//0Aw//9AKQ-ische Sommerzeit),1562835390804,21,female,Graduated High School,,,1562835786063,6.58765,INSERT+AF8-A+AF8-NUMBER,2
ratingScaleLike,31,2,899,How much do you like this picture?,images/012.jpg,12,NA,NA,,not at all,very,P,1909,colored,colored,NA,NA,Thu Jul 11 2019 10:56:30 GMT+023//Q- (Mitteleurop+//0Aw//9AKQ-ische Sommerzeit),1562835390804,21,female,Graduated High School,,,1562835786063,6.58765,INSERT+AF8-A+AF8-NUMBER,2
ratingScaleLike,32,2,1476,How much do you like this picture?,images/109.jpg,109,NA,NA,,not at all,very,G,1913,monochrome,monochrome,NA,NA,Thu Jul 11 2019 10:56:30 GMT+023//Q- (Mitteleurop+//0Aw//9AKQ-ische Sommerzeit),1562835390804,21,female,Graduated High School,,,1562835786063,6.58765,INSERT+AF8-A+AF8-NUMBER,2
ratingScaleLike,33,7,1864,How much do you like this picture?,images/078.jpg,78,NA,NA,,not at all,very,G,1914,colored,colored,NA,NA,Thu Jul 11 2019 10:56:30 GMT+023//Q- (Mitteleurop+//0Aw//9AKQ-ische Sommerzeit),1562835390804,21,female,Graduated High School,,,1562835786063,6.58765,INSERT+AF8-A+AF8-NUMBER,2
ratingScaleLike,34,5,1724,How much do you like this picture?,images/082.jpg,82,NA,NA,,not at all,very,G,1913,colored,colored,NA,NA,Thu Jul 11 2019 10:56:30 GMT+023//Q- (Mitteleurop+//0Aw//9AKQ-ische Sommerzeit),1562835390804,21,female,Graduated High School,,,1562835786063,6.58765,INSERT+AF8-A+AF8-NUMBER,2
ratingScaleLike,35,7,1708,How much do you like this picture?,images/074.jpg,74,NA,NA,,not at all,very,G,1919,colored,colored,NA,NA,Thu Jul 11 2019 10:56:30 GMT+023//Q- (Mitteleurop+//0Aw//9AKQ-ische Sommerzeit),1562835390804,21,female,Graduated High School,,,1562835786063,6.58765,INSERT+AF8-A+AF8-NUMBER,2
ratingScaleLike,36,7,1419,How much do you like this picture?,images/111.jpg,111,NA,NA,,not at all,very,G,1915,monochrome,monochrome,NA,NA,Thu Jul 11 2019 10:56:30 GMT+023//Q- (Mitteleurop+//0Aw//9AKQ-ische Sommerzeit),1562835390804,21,female,Graduated High School,,,1562835786063,6.58765,INSERT+AF8-A+AF8-NUMBER,2
ratingScaleLike,37,3,3565,How much do you like this picture?,images/041.jpg,41,NA,NA,,not at all,very,B,1908,monochrome,monochrome,NA,NA,Thu Jul 11 2019 10:56:30 GMT+023//Q- (Mitteleurop+//0Aw//9AKQ-ische Sommerzeit),1562835390804,21,female,Graduated High School,,,1562835786063,6.58765,INSERT+AF8-A+AF8-NUMBER,2
ratingScaleLike,38,1,2981,How much do you like this picture?,images/049.jpg,49,NA,NA,,not at all,very,B,1911,monochrome,monochrome,NA,NA,Thu Jul 11 2019 10:56:30 GMT+023//Q- (Mitteleurop+//0Aw//9AKQ-ische Sommerzeit),1562835390804,21,female,Graduated High School,,,1562835786063,6.58765,INSERT+AF8-A+AF8-NUMBER,2
ratingScaleLike,39,1,858,How much do you like this picture?,images/067.jpg,67,NA,NA,,not at all,very,P,1911,monochrome,monochrome,NA,NA,Thu Jul 11 2019 10:56:30 GMT+023//Q- (Mitteleurop+//0Aw//9AKQ-ische Sommerzeit),1562835390804,21,female,Graduated High School,,,1562835786063,6.58765,INSERT+AF8-A+AF8-NUMBER,2
ratingScaleLike,40,2,2466,How much do you like this picture?,images/027.jpg,27,NA,NA,,not at all,very,P,1911,colored,sepia,NA,NA,Thu Jul 11 2019 10:56:30 GMT+023//Q- (Mitteleurop+//0Aw//9AKQ-ische Sommerzeit),1562835390804,21,female,Graduated High School,,,1562835786063,6.58765,INSERT+AF8-A+AF8-NUMBER,2
ratingScaleLike,41,2,601,How much do you like this picture?,images/113.jpg,113,NA,NA,,not at all,very,P,1910,colored,sepia,NA,NA,Thu Jul 11 2019 10:56:30 GMT+023//Q- (Mitteleurop+//0Aw//9AKQ-ische Sommerzeit),1562835390804,21,female,Graduated High School,,,1562835786063,6.58765,INSERT+AF8-A+AF8-NUMBER,2
ratingScaleLike,42,2,762,How much do you like this picture?,images/023.jpg,23,NA,NA,,not at all,very,P,1911,colored,colored,NA,NA,Thu Jul 11 2019 10:56:30 GMT+023//Q- (Mitteleurop+//0Aw//9AKQ-ische Sommerzeit),1562835390804,21,female,Graduated High School,,,1562835786063,6.58765,INSERT+AF8-A+AF8-NUMBER,2
ratingScaleLike,43,3,1002,How much do you like this picture?,images/055.jpg,55,NA,NA,,not at all,very,P,1911,monochrome,monochrome,NA,NA,Thu Jul 11 2019 10:56:30 GMT+023//Q- (Mitteleurop+//0Aw//9AKQ-ische Sommerzeit),1562835390804,21,female,Graduated High School,,,1562835786063,6.58765,INSERT+AF8-A+AF8-NUMBER,2
ratingScaleLike,44,7,1339,How much do you like this picture?,images/088.jpg,88,NA,NA,,not at all,very,G,1916,colored,colored,NA,NA,Thu Jul 11 2019 10:56:30 GMT+023//Q- (Mitteleurop+//0Aw//9AKQ-ische Sommerzeit),1562835390804,21,female,Graduated High School,,,1562835786063,6.58765,INSERT+AF8-A+AF8-NUMBER,2
ratingScaleLike,45,6,1643,How much do you like this picture?,images/084.jpg,84,NA,NA,,not at all,very,G,1912,colored,colored,NA,NA,Thu Jul 11 2019 10:56:30 GMT+023//Q- (Mitteleurop+//0Aw//9AKQ-ische Sommerzeit),1562835390804,21,female,Graduated High School,,,1562835786063,6.58765,INSERT+AF8-A+AF8-NUMBER,2
ratingScaleLike,46,2,1404,How much do you like this picture?,images/052.jpg,52,NA,NA,,not at all,very,P,1911,monochrome,monochrome,NA,NA,Thu Jul 11 2019 10:56:30 GMT+023//Q- (Mitteleurop+//0Aw//9AKQ-ische Sommerzeit),1562835390804,21,female,Graduated High School,,,1562835786063,6.58765,INSERT+AF8-A+AF8-NUMBER,2
ratingScaleLike,47,1,1328,How much do you like this picture?,images/048.jpg,48,NA,NA,,not at all,very,B,1911,monochrome,monochrome,NA,NA,Thu Jul 11 2019 10:56:30 GMT+023//Q- (Mitteleurop+//0Aw//9AKQ-ische Sommerzeit),1562835390804,21,female,Graduated High School,,,1562835786063,6.58765,INSERT+AF8-A+AF8-NUMBER,2
ratingScaleLike,48,1,890,How much do you like this picture?,images/069.jpg,69,NA,NA,,not at all,very,P,1910,monochrome,monochrome,NA,NA,Thu Jul 11 2019 10:56:30 GMT+023//Q- (Mitteleurop+//0Aw//9AKQ-ische Sommerzeit),1562835390804,21,female,Graduated High School,,,1562835786063,6.58765,INSERT+AF8-A+AF8-NUMBER,2
ratingScaleLike,49,1,600,How much do you like this picture?,images/099.jpg,99,NA,NA,,not at all,very,G,1916,monochrome,monochrome,NA,NA,Thu Jul 11 2019 10:56:30 GMT+023//Q- (Mitteleurop+//0Aw//9AKQ-ische Sommerzeit),1562835390804,21,female,Graduated High School,,,1562835786063,6.58765,INSERT+AF8-A+AF8-NUMBER,2
ratingScaleLike,50,1,1139,How much do you like this picture?,images/033.jpg,33,NA,NA,,not at all,very,B,1910,colored,sepia,NA,NA,Thu Jul 11 2019 10:56:30 GMT+023//Q- (Mitteleurop+//0Aw//9AKQ-ische Sommerzeit),1562835390804,21,female,Graduated High School,,,1562835786063,6.58765,INSERT+AF8-A+AF8-NUMBER,2
ratingScaleLike,51,1,749,How much do you like this picture?,images/036.jpg,36,NA,NA,,not at all,very,B,1908,monochrome,monochrome,NA,NA,Thu Jul 11 2019 10:56:30 GMT+023//Q- (Mitteleurop+//0Aw//9AKQ-ische Sommerzeit),1562835390804,21,female,Graduated High School,,,1562835786063,6.58765,INSERT+AF8-A+AF8-NUMBER,2
ratingScaleLike,52,1,770,How much do you like this picture?,images/034.jpg,34,NA,NA,,not at all,very,B,1911,colored,sepia,NA,NA,Thu Jul 11 2019 10:56:30 GMT+023//Q- (Mitteleurop+//0Aw//9AKQ-ische Sommerzeit),1562835390804,21,female,Graduated High School,,,1562835786063,6.58765,INSERT+AF8-A+AF8-NUMBER,2
ratingScaleLike,53,1,882,How much do you like this picture?,images/115.jpg,115,NA,NA,,not at all,very,P,1910,colored,sepia,NA,NA,Thu Jul 11 2019 10:56:30 GMT+023//Q- (Mitteleurop+//0Aw//9AKQ-ische Sommerzeit),1562835390804,21,female,Graduated High School,,,1562835786063,6.58765,INSERT+AF8-A+AF8-NUMBER,2
ratingScaleLike,54,1,625,How much do you like this picture?,images/087.jpg,87,NA,NA,,not at all,very,G,1913,colored,colored,NA,NA,Thu Jul 11 2019 10:56:30 GMT+023//Q- (Mitteleurop+//0Aw//9AKQ-ische Sommerzeit),1562835390804,21,female,Graduated High School,,,1562835786063,6.58765,INSERT+AF8-A+AF8-NUMBER,2
ratingScaleLike,55,1,2162,How much do you like this picture?,images/050.jpg,50,NA,NA,,not at all,very,B,1911,monochrome,monochrome,NA,NA,Thu Jul 11 2019 10:56:30 GMT+023//Q- (Mitteleurop+//0Aw//9AKQ-ische Sommerzeit),1562835390804,21,female,Graduated High School,,,1562835786063,6.58765,INSERT+AF8-A+AF8-NUMBER,2
ratingScaleLike,56,1,1363,How much do you like this picture?,images/029.jpg,29,NA,NA,,not at all,very,P,1912,colored,colored,NA,NA,Thu Jul 11 2019 10:56:30 GMT+023//Q- (Mitteleurop+//0Aw//9AKQ-ische Sommerzeit),1562835390804,21,female,Graduated High School,,,1562835786063,6.58765,INSERT+AF8-A+AF8-NUMBER,2
ratingScaleLike,57,1,1066,How much do you like this picture?,images/062.jpg,62,NA,NA,,not at all,very,P,1912,monochrome,monochrome,NA,NA,Thu Jul 11 2019 10:56:30 GMT+023//Q- (Mitteleurop+//0Aw//9AKQ-ische Sommerzeit),1562835390804,21,female,Graduated High School,,,1562835786063,6.58765,INSERT+AF8-A+AF8-NUMBER,2
ratingScaleLike,58,1,866,How much do you like this picture?,images/016.jpg,16,NA,NA,,not at all,very,P,1910,colored,sepia,NA,NA,Thu Jul 11 2019 10:56:30 GMT+023//Q- (Mitteleurop+//0Aw//9AKQ-ische Sommerzeit),1562835390804,21,female,Graduated High School,,,1562835786063,6.58765,INSERT+AF8-A+AF8-NUMBER,2
ratingScaleLike,59,6,1929,How much do you like this picture?,images/083.jpg,83,NA,NA,,not at all,very,G,1912,colored,colored,NA,NA,Thu Jul 11 2019 10:56:30 GMT+023//Q- (Mitteleurop+//0Aw//9AKQ-ische Sommerzeit),1562835390804,21,female,Graduated High School,,,1562835786063,6.58765,INSERT+AF8-A+AF8-NUMBER,2
ratingScaleLike,60,1,1612,How much do you like this picture?,images/039.jpg,39,NA,NA,,not at all,very,B,1911,monochrome,monochrome,NA,NA,Thu Jul 11 2019 10:56:30 GMT+023//Q- (Mitteleurop+//0Aw//9AKQ-ische Sommerzeit),1562835390804,21,female,Graduated High School,,,1562835786063,6.58765,INSERT+AF8-A+AF8-NUMBER,2
ratingScaleLike,61,1,4569,How much do you like this picture?,images/057.jpg,57,NA,NA,,not at all,very,P,1911,monochrome,monochrome,NA,NA,Thu Jul 11 2019 10:56:30 GMT+023//Q- (Mitteleurop+//0Aw//9AKQ-ische Sommerzeit),1562835390804,21,female,Graduated High School,,,1562835786063,6.58765,INSERT+AF8-A+AF8-NUMBER,2
ratingScaleLike,62,2,5419,How much do you like this picture?,images/032.jpg,32,NA,NA,,not at all,very,P,1910,colored,sepia,NA,NA,Thu Jul 11 2019 10:56:30 GMT+023//Q- (Mitteleurop+//0Aw//9AKQ-ische Sommerzeit),1562835390804,21,female,Graduated High School,,,1562835786063,6.58765,INSERT+AF8-A+AF8-NUMBER,2
